onset	duration	sample	trial_type	response_time	stim_file	study_1	study_2	serialpos	probepos	probe_word	resp_word	correct	list	test	answer	stimulation	stim_list	stim_duration	anode_label	cathode_label	amplitude	pulse_freq	n_pulses	pulse_width	experiment	session	subject
0.0	79.809	309512	SESS_START	n/a	n/a	n/a	n/a	-999	-999	n/a	n/a	-999	-999	[0, 0, 0]	n/a	0	0	0	n/a	n/a	0.0	0	0	0	PAL2	1	R1091N
79.809	1.016	389318	START	n/a	n/a	n/a	n/a	-999	-999	n/a	n/a	-999	-1	[-999, -999, -999]	n/a	0	-999	0	n/a	n/a	0.0	0	0	0	PAL2	1	R1091N
80.825	16.003	390334	PROB	15.972	n/a	n/a	n/a	-999	-999	n/a	n/a	-999	-1	[9, 2, 6]	17	0	-999	0	n/a	n/a	0.0	0	0	0	PAL2	1	R1091N
96.828	5.616	406337	PROB	5.616	n/a	n/a	n/a	-999	-999	n/a	n/a	-999	-1	[9, 2, 7]	18	0	-999	0	n/a	n/a	0.0	0	0	0	PAL2	1	R1091N
102.444	52.896	411953	STOP	n/a	n/a	n/a	n/a	-999	-999	n/a	n/a	-999	-1	[-999, -999, -999]	n/a	0	-999	0	n/a	n/a	0.0	0	0	0	PAL2	1	R1091N
155.34	10.45	464847	ENCODING_START	n/a	n/a	n/a	n/a	0	-999	n/a	n/a	-999	1	[0, 0, 0]	n/a	0	1	0	n/a	n/a	0.0	0	0	0	PAL2	1	R1091N
165.79	0.25	475297	STUDY_ORIENT	n/a	n/a	BAND	LAMP	1	3	LAMP	FACE	0	1	[0, 0, 0]	n/a	0	1	0	n/a	n/a	0.0	0	0	0	PAL2	1	R1091N
166.69	4.0	476197	STUDY_PAIR	n/a	wordpools/wordpool_EN.txt	BAND	LAMP	1	3	LAMP	FACE	0	1	[0, 0, 0]	n/a	0	1	0	n/a	n/a	0.0	0	0	0	PAL2	1	R1091N
171.724	0.25	481230	STUDY_ORIENT	n/a	n/a	VEST	PLATE	2	6	VEST	n/a	0	1	[0, 0, 0]	n/a	0	1	0	n/a	n/a	0.0	0	0	0	PAL2	1	R1091N
172.379	4.6	481885	STIM_ON	n/a	n/a	VEST	PLATE	2	6	VEST	n/a	0	1	[0, 0, 0]	n/a	1	1	4600	ALF7	ALF8	3000.0	50	230	300	PAL2	1	R1091N
172.591	4.0	482097	STUDY_PAIR	n/a	wordpools/wordpool_EN.txt	VEST	PLATE	2	6	VEST	n/a	0	1	[0, 0, 0]	n/a	1	1	4600	ALF7	ALF8	3000.0	50	230	300	PAL2	1	R1091N
177.625	0.25	487131	STUDY_ORIENT	n/a	n/a	SHOE	PANTS	3	1	PANTS	n/a	0	1	[0, 0, 0]	n/a	0	1	0	n/a	n/a	0.0	0	0	0	PAL2	1	R1091N
178.491	4.0	487997	STUDY_PAIR	n/a	wordpools/wordpool_EN.txt	SHOE	PANTS	3	1	PANTS	n/a	0	1	[0, 0, 0]	n/a	0	1	0	n/a	n/a	0.0	0	0	0	PAL2	1	R1091N
183.525	0.25	493031	STUDY_ORIENT	n/a	n/a	POLE	PIT	4	2	PIT	POLE	1	1	[0, 0, 0]	n/a	0	1	0	n/a	n/a	0.0	0	0	0	PAL2	1	R1091N
184.157	4.6	493663	STIM_ON	n/a	n/a	POLE	PIT	4	2	PIT	POLE	1	1	[0, 0, 0]	n/a	1	1	4600	ALF7	ALF8	3000.0	50	230	300	PAL2	1	R1091N
184.358	4.0	493864	STUDY_PAIR	n/a	wordpools/wordpool_EN.txt	POLE	PIT	4	2	PIT	POLE	1	1	[0, 0, 0]	n/a	1	1	4600	ALF7	ALF8	3000.0	50	230	300	PAL2	1	R1091N
189.376	0.25	498882	STUDY_ORIENT	n/a	n/a	BARN	SHARK	5	5	BARN	n/a	0	1	[0, 0, 0]	n/a	0	1	0	n/a	n/a	0.0	0	0	0	PAL2	1	R1091N
190.376	4.0	499882	STUDY_PAIR	n/a	wordpools/wordpool_EN.txt	BARN	SHARK	5	5	BARN	n/a	0	1	[0, 0, 0]	n/a	0	1	0	n/a	n/a	0.0	0	0	0	PAL2	1	R1091N
195.41	0.25	504916	STUDY_ORIENT	n/a	n/a	BRIDGE	STRING	6	4	STRING	VEST	0	1	[0, 0, 0]	n/a	0	1	0	n/a	n/a	0.0	0	0	0	PAL2	1	R1091N
196.111	4.6	505617	STIM_ON	n/a	n/a	BRIDGE	STRING	6	4	STRING	VEST	0	1	[0, 0, 0]	n/a	1	1	4600	ALF7	ALF8	3000.0	50	230	300	PAL2	1	R1091N
196.328	4.0	505834	STUDY_PAIR	n/a	wordpools/wordpool_EN.txt	BRIDGE	STRING	6	4	STRING	VEST	0	1	[0, 0, 0]	n/a	1	1	4600	ALF7	ALF8	3000.0	50	230	300	PAL2	1	R1091N
200.345	0.999	509851	START	n/a	n/a	n/a	n/a	-999	-999	n/a	n/a	-999	1	[-999, -999, -999]	n/a	0	1	0	n/a	n/a	0.0	0	0	0	PAL2	1	R1091N
201.344	0.017	510850	MATH_START	n/a	n/a	n/a	n/a	-999	-999	n/a	n/a	-999	1	[0, 0, 0]	n/a	0	1	0	n/a	n/a	0.0	0	0	0	PAL2	1	R1091N
201.361	9.068	510867	PROB	9.035	n/a	n/a	n/a	-999	-999	n/a	n/a	-999	1	[2, 8, 8]	18	0	1	0	n/a	n/a	0.0	0	0	0	PAL2	1	R1091N
210.429	5.336	519934	PROB	5.312	n/a	n/a	n/a	-999	-999	n/a	n/a	-999	1	[7, 6, 9]	21	0	1	0	n/a	n/a	0.0	0	0	0	PAL2	1	R1091N
215.765	4.017	525270	PROB	3.984	n/a	n/a	n/a	-999	-999	n/a	n/a	-999	1	[5, 6, 6]	17	0	1	0	n/a	n/a	0.0	0	0	0	PAL2	1	R1091N
219.782	2.879	529287	PROB	2.879	n/a	n/a	n/a	-999	-999	n/a	n/a	-999	1	[6, 2, 1]	9	0	1	0	n/a	n/a	0.0	0	0	0	PAL2	1	R1091N
222.661	0.005	532166	STOP	n/a	n/a	n/a	n/a	-999	-999	n/a	n/a	-999	1	[-999, -999, -999]	n/a	0	1	0	n/a	n/a	0.0	0	0	0	PAL2	1	R1091N
222.666	0.0	532171	MATH_END	n/a	n/a	n/a	n/a	-999	-999	n/a	n/a	-999	1	[0, 0, 0]	n/a	0	1	0	n/a	n/a	0.0	0	0	0	PAL2	1	R1091N
222.666	0.017	532171	TEST_START	n/a	n/a	n/a	n/a	-999	-999	n/a	n/a	-999	1	[0, 0, 0]	n/a	0	1	0	n/a	n/a	0.0	0	0	0	PAL2	1	R1091N
222.683	0.25	532188	TEST_ORIENT	n/a	n/a	SHOE	PANTS	3	1	PANTS	n/a	0	1	[0, 0, 0]	n/a	0	1	0	n/a	n/a	0.0	0	0	0	PAL2	1	R1091N
223.566	4.0	533071	TEST_PROBE	n/a	wordpools/wordpool_EN.txt	SHOE	PANTS	3	1	PANTS	n/a	0	1	[0, 0, 0]	n/a	0	1	0	n/a	n/a	0.0	0	0	0	PAL2	1	R1091N
223.567	5.015	533072	REC_START	n/a	n/a	n/a	n/a	3	-999	n/a	n/a	0	1	[0, 0, 0]	n/a	0	1	0	n/a	n/a	0.0	0	0	0	PAL2	1	R1091N
228.582	0.001	538087	REC_EVENT	5.015	n/a	SHOE	PANTS	3	1	PANTS	<>	0	1	[0, 0, 0]	n/a	0	1	0	n/a	n/a	0.0	0	0	0	PAL2	1	R1091N
228.583	0.017	538088	REC_END	n/a	n/a	n/a	n/a	3	-999	n/a	n/a	-999	1	[0, 0, 0]	n/a	0	1	0	n/a	n/a	0.0	0	0	0	PAL2	1	R1091N
228.6	0.25	538105	TEST_ORIENT	n/a	n/a	POLE	PIT	4	2	PIT	POLE	1	1	[0, 0, 0]	n/a	0	1	0	n/a	n/a	0.0	0	0	0	PAL2	1	R1091N
229.567	4.0	539072	TEST_PROBE	n/a	wordpools/wordpool_EN.txt	POLE	PIT	4	2	PIT	POLE	1	1	[0, 0, 0]	n/a	0	1	0	n/a	n/a	0.0	0	0	0	PAL2	1	R1091N
229.568	1.0	539073	REC_START	n/a	n/a	n/a	n/a	4	-999	n/a	POLE	1	1	[0, 0, 0]	n/a	0	1	0	n/a	n/a	0.0	0	0	0	PAL2	1	R1091N
230.568	4.016	540073	REC_EVENT	1.0	n/a	POLE	PIT	4	2	PIT	POLE	1	1	[0, 0, 0]	n/a	0	1	0	n/a	n/a	0.0	0	0	0	PAL2	1	R1091N
234.584	0.017	544088	REC_END	n/a	n/a	n/a	n/a	4	-999	n/a	n/a	-999	1	[0, 0, 0]	n/a	0	1	0	n/a	n/a	0.0	0	0	0	PAL2	1	R1091N
234.601	0.25	544105	TEST_ORIENT	n/a	n/a	BAND	LAMP	1	3	LAMP	FACE	0	1	[0, 0, 0]	n/a	0	1	0	n/a	n/a	0.0	0	0	0	PAL2	1	R1091N
235.45	4.0	544954	TEST_PROBE	n/a	wordpools/wordpool_EN.txt	BAND	LAMP	1	3	LAMP	FACE	0	1	[0, 0, 0]	n/a	0	1	0	n/a	n/a	0.0	0	0	0	PAL2	1	R1091N
235.451	3.631	544955	REC_START	n/a	n/a	n/a	n/a	1	-999	n/a	FACE	0	1	[0, 0, 0]	n/a	0	1	0	n/a	n/a	0.0	0	0	0	PAL2	1	R1091N
239.082	1.376	548586	REC_EVENT	3.631	n/a	BAND	LAMP	1	3	LAMP	FACE	0	1	[0, 0, 0]	n/a	0	1	0	n/a	n/a	0.0	0	0	0	PAL2	1	R1091N
240.458	0.01	549962	REC_END	n/a	n/a	n/a	n/a	1	-999	n/a	n/a	-999	1	[0, 0, 0]	n/a	0	1	0	n/a	n/a	0.0	0	0	0	PAL2	1	R1091N
240.468	0.25	549972	TEST_ORIENT	n/a	n/a	BRIDGE	STRING	6	4	STRING	VEST	0	1	[0, 0, 0]	n/a	0	1	0	n/a	n/a	0.0	0	0	0	PAL2	1	R1091N
241.335	0.0	550839	REC_START	n/a	n/a	n/a	n/a	6	-999	n/a	VEST	0	1	[0, 0, 0]	n/a	0	1	0	n/a	n/a	0.0	0	0	0	PAL2	1	R1091N
241.335	4.0	550839	TEST_PROBE	n/a	wordpools/wordpool_EN.txt	BRIDGE	STRING	6	4	STRING	VEST	0	1	[0, 0, 0]	n/a	0	1	0	n/a	n/a	0.0	0	0	0	PAL2	1	R1091N
242.056	0.83	551560	REC_EVENT	0.721	n/a	BRIDGE	STRING	6	4	STRING	<>	0	1	[0, 0, 0]	n/a	0	1	0	n/a	n/a	0.0	0	0	0	PAL2	1	R1091N
242.886	3.466	552390	REC_EVENT	1.551	n/a	BRIDGE	STRING	6	4	STRING	VEST	0	1	[0, 0, 0]	n/a	0	1	0	n/a	n/a	0.0	0	0	0	PAL2	1	R1091N
246.352	0.017	555856	REC_END	n/a	n/a	n/a	n/a	6	-999	n/a	n/a	-999	1	[0, 0, 0]	n/a	0	1	0	n/a	n/a	0.0	0	0	0	PAL2	1	R1091N
246.369	0.25	555873	TEST_ORIENT	n/a	n/a	BARN	SHARK	5	5	BARN	n/a	0	1	[0, 0, 0]	n/a	0	1	0	n/a	n/a	0.0	0	0	0	PAL2	1	R1091N
247.187	4.0	556691	TEST_PROBE	n/a	wordpools/wordpool_EN.txt	BARN	SHARK	5	5	BARN	n/a	0	1	[0, 0, 0]	n/a	0	1	0	n/a	n/a	0.0	0	0	0	PAL2	1	R1091N
247.187	2.739	556691	REC_START	n/a	n/a	n/a	n/a	5	-999	n/a	n/a	0	1	[0, 0, 0]	n/a	0	1	0	n/a	n/a	0.0	0	0	0	PAL2	1	R1091N
249.926	2.278	559430	REC_EVENT	2.739	n/a	BARN	SHARK	5	5	BARN	<>	0	1	[0, 0, 0]	n/a	0	1	0	n/a	n/a	0.0	0	0	0	PAL2	1	R1091N
252.204	0.017	561708	REC_END	n/a	n/a	n/a	n/a	5	-999	n/a	n/a	-999	1	[0, 0, 0]	n/a	0	1	0	n/a	n/a	0.0	0	0	0	PAL2	1	R1091N
252.221	0.25	561725	TEST_ORIENT	n/a	n/a	VEST	PLATE	2	6	VEST	n/a	0	1	[0, 0, 0]	n/a	0	1	0	n/a	n/a	0.0	0	0	0	PAL2	1	R1091N
253.238	4.0	562742	TEST_PROBE	n/a	wordpools/wordpool_EN.txt	VEST	PLATE	2	6	VEST	n/a	0	1	[0, 0, 0]	n/a	0	1	0	n/a	n/a	0.0	0	0	0	PAL2	1	R1091N
253.238	5.015	562742	REC_START	n/a	n/a	n/a	n/a	2	-999	n/a	n/a	0	1	[0, 0, 0]	n/a	0	1	0	n/a	n/a	0.0	0	0	0	PAL2	1	R1091N
258.253	0.002	567757	REC_EVENT	5.015	n/a	VEST	PLATE	2	6	VEST	<>	0	1	[0, 0, 0]	n/a	0	1	0	n/a	n/a	0.0	0	0	0	PAL2	1	R1091N
258.255	2.046	567759	REC_END	n/a	n/a	n/a	n/a	2	-999	n/a	n/a	-999	1	[0, 0, 0]	n/a	0	1	0	n/a	n/a	0.0	0	0	0	PAL2	1	R1091N
260.301	10.44	569805	ENCODING_START	n/a	n/a	n/a	n/a	0	-999	n/a	n/a	-999	2	[0, 0, 0]	n/a	0	1	0	n/a	n/a	0.0	0	0	0	PAL2	1	R1091N
270.741	0.25	580244	STUDY_ORIENT	n/a	n/a	ROSE	STONE	1	5	STONE	n/a	0	2	[0, 0, 0]	n/a	0	1	0	n/a	n/a	0.0	0	0	0	PAL2	1	R1091N
271.741	4.0	581244	STUDY_PAIR	n/a	wordpools/wordpool_EN.txt	ROSE	STONE	1	5	STONE	n/a	0	2	[0, 0, 0]	n/a	0	1	0	n/a	n/a	0.0	0	0	0	PAL2	1	R1091N
276.775	0.25	586278	STUDY_ORIENT	n/a	n/a	TANK	STAIR	2	2	STAIR	n/a	0	2	[0, 0, 0]	n/a	0	1	0	n/a	n/a	0.0	0	0	0	PAL2	1	R1091N
277.592	4.0	587095	STUDY_PAIR	n/a	wordpools/wordpool_EN.txt	TANK	STAIR	2	2	STAIR	n/a	0	2	[0, 0, 0]	n/a	0	1	0	n/a	n/a	0.0	0	0	0	PAL2	1	R1091N
282.626	0.25	592129	STUDY_ORIENT	n/a	n/a	FOAM	BLOOM	3	3	BLOOM	n/a	0	2	[0, 0, 0]	n/a	0	1	0	n/a	n/a	0.0	0	0	0	PAL2	1	R1091N
283.425	4.0	592928	STUDY_PAIR	n/a	wordpools/wordpool_EN.txt	FOAM	BLOOM	3	3	BLOOM	n/a	0	2	[0, 0, 0]	n/a	0	1	0	n/a	n/a	0.0	0	0	0	PAL2	1	R1091N
288.443	0.25	597946	STUDY_ORIENT	n/a	n/a	TIE	BEAK	4	4	TIE	n/a	0	2	[0, 0, 0]	n/a	0	1	0	n/a	n/a	0.0	0	0	0	PAL2	1	R1091N
289.46	4.0	598963	STUDY_PAIR	n/a	wordpools/wordpool_EN.txt	TIE	BEAK	4	4	TIE	n/a	0	2	[0, 0, 0]	n/a	0	1	0	n/a	n/a	0.0	0	0	0	PAL2	1	R1091N
294.494	0.25	603997	STUDY_ORIENT	n/a	n/a	PALM	HOSE	5	1	PALM	n/a	0	2	[0, 0, 0]	n/a	0	1	0	n/a	n/a	0.0	0	0	0	PAL2	1	R1091N
295.377	4.0	604879	STUDY_PAIR	n/a	wordpools/wordpool_EN.txt	PALM	HOSE	5	1	PALM	n/a	0	2	[0, 0, 0]	n/a	0	1	0	n/a	n/a	0.0	0	0	0	PAL2	1	R1091N
300.395	0.25	609897	STUDY_ORIENT	n/a	n/a	CHIEF	FLAG	6	6	FLAG	CHIEF	1	2	[0, 0, 0]	n/a	0	1	0	n/a	n/a	0.0	0	0	0	PAL2	1	R1091N
301.296	4.0	610798	STUDY_PAIR	n/a	wordpools/wordpool_EN.txt	CHIEF	FLAG	6	6	FLAG	CHIEF	1	2	[0, 0, 0]	n/a	0	1	0	n/a	n/a	0.0	0	0	0	PAL2	1	R1091N
305.314	0.999	614816	START	n/a	n/a	n/a	n/a	-999	-999	n/a	n/a	-999	2	[-999, -999, -999]	n/a	0	1	0	n/a	n/a	0.0	0	0	0	PAL2	1	R1091N
306.313	0.017	615815	MATH_START	n/a	n/a	n/a	n/a	-999	-999	n/a	n/a	-999	2	[0, 0, 0]	n/a	0	1	0	n/a	n/a	0.0	0	0	0	PAL2	1	R1091N
306.33	3.951	615832	PROB	3.923	n/a	n/a	n/a	-999	-999	n/a	n/a	-999	2	[6, 5, 1]	12	0	1	0	n/a	n/a	0.0	0	0	0	PAL2	1	R1091N
310.281	5.417	619783	PROB	5.396	n/a	n/a	n/a	-999	-999	n/a	n/a	-999	2	[3, 9, 4]	16	0	1	0	n/a	n/a	0.0	0	0	0	PAL2	1	R1091N
315.698	5.985	625200	PROB	5.963	n/a	n/a	n/a	-999	-999	n/a	n/a	-999	2	[6, 4, 4]	14	0	1	0	n/a	n/a	0.0	0	0	0	PAL2	1	R1091N
321.683	7.226	631185	PROB	7.226	n/a	n/a	n/a	-999	-999	n/a	n/a	-999	2	[5, 3, 6]	15	0	1	0	n/a	n/a	0.0	0	0	0	PAL2	1	R1091N
328.909	0.008	638410	STOP	n/a	n/a	n/a	n/a	-999	-999	n/a	n/a	-999	2	[-999, -999, -999]	n/a	0	1	0	n/a	n/a	0.0	0	0	0	PAL2	1	R1091N
328.917	0.0	638418	MATH_END	n/a	n/a	n/a	n/a	-999	-999	n/a	n/a	-999	2	[0, 0, 0]	n/a	0	1	0	n/a	n/a	0.0	0	0	0	PAL2	1	R1091N
328.917	0.017	638418	TEST_START	n/a	n/a	n/a	n/a	-999	-999	n/a	n/a	-999	2	[0, 0, 0]	n/a	0	1	0	n/a	n/a	0.0	0	0	0	PAL2	1	R1091N
328.934	0.25	638435	TEST_ORIENT	n/a	n/a	PALM	HOSE	5	1	PALM	n/a	0	2	[0, 0, 0]	n/a	0	1	0	n/a	n/a	0.0	0	0	0	PAL2	1	R1091N
329.851	4.0	639352	TEST_PROBE	n/a	wordpools/wordpool_EN.txt	PALM	HOSE	5	1	PALM	n/a	0	2	[0, 0, 0]	n/a	0	1	0	n/a	n/a	0.0	0	0	0	PAL2	1	R1091N
329.852	5.021	639353	REC_START	n/a	n/a	n/a	n/a	5	-999	n/a	n/a	0	2	[0, 0, 0]	n/a	0	1	0	n/a	n/a	0.0	0	0	0	PAL2	1	R1091N
334.873	0.003	644374	REC_EVENT	5.021	n/a	PALM	HOSE	5	1	PALM	<>	0	2	[0, 0, 0]	n/a	0	1	0	n/a	n/a	0.0	0	0	0	PAL2	1	R1091N
334.876	0.009	644377	REC_END	n/a	n/a	n/a	n/a	5	-999	n/a	n/a	-999	2	[0, 0, 0]	n/a	0	1	0	n/a	n/a	0.0	0	0	0	PAL2	1	R1091N
334.885	0.25	644386	TEST_ORIENT	n/a	n/a	TANK	STAIR	2	2	STAIR	n/a	0	2	[0, 0, 0]	n/a	0	1	0	n/a	n/a	0.0	0	0	0	PAL2	1	R1091N
335.556	4.6	645057	STIM_ON	n/a	n/a	TANK	STAIR	2	2	STAIR	n/a	0	2	[0, 0, 0]	n/a	1	1	4600	ALF7	ALF8	3000.0	50	230	300	PAL2	1	R1091N
335.768	4.0	645269	TEST_PROBE	n/a	wordpools/wordpool_EN.txt	TANK	STAIR	2	2	STAIR	n/a	0	2	[0, 0, 0]	n/a	1	1	4600	ALF7	ALF8	3000.0	50	230	300	PAL2	1	R1091N
335.769	5.015	645270	REC_START	n/a	n/a	n/a	n/a	2	-999	n/a	n/a	0	2	[0, 0, 0]	n/a	1	1	4600	ALF7	ALF8	3000.0	50	230	300	PAL2	1	R1091N
340.784	0.002	650285	REC_EVENT	5.015	n/a	TANK	STAIR	2	2	STAIR	<>	0	2	[0, 0, 0]	n/a	0	1	0	n/a	n/a	0.0	0	0	0	PAL2	1	R1091N
340.786	0.017	650287	REC_END	n/a	n/a	n/a	n/a	2	-999	n/a	n/a	-999	2	[0, 0, 0]	n/a	0	1	0	n/a	n/a	0.0	0	0	0	PAL2	1	R1091N
340.803	0.25	650304	TEST_ORIENT	n/a	n/a	FOAM	BLOOM	3	3	BLOOM	n/a	0	2	[0, 0, 0]	n/a	0	1	0	n/a	n/a	0.0	0	0	0	PAL2	1	R1091N
341.703	4.0	651204	TEST_PROBE	n/a	wordpools/wordpool_EN.txt	FOAM	BLOOM	3	3	BLOOM	n/a	0	2	[0, 0, 0]	n/a	0	1	0	n/a	n/a	0.0	0	0	0	PAL2	1	R1091N
341.703	5.015	651204	REC_START	n/a	n/a	n/a	n/a	3	-999	n/a	n/a	0	2	[0, 0, 0]	n/a	0	1	0	n/a	n/a	0.0	0	0	0	PAL2	1	R1091N
346.718	0.002	656219	REC_EVENT	5.015	n/a	FOAM	BLOOM	3	3	BLOOM	<>	0	2	[0, 0, 0]	n/a	0	1	0	n/a	n/a	0.0	0	0	0	PAL2	1	R1091N
346.72	0.017	656221	REC_END	n/a	n/a	n/a	n/a	3	-999	n/a	n/a	-999	2	[0, 0, 0]	n/a	0	1	0	n/a	n/a	0.0	0	0	0	PAL2	1	R1091N
346.737	0.25	656238	TEST_ORIENT	n/a	n/a	TIE	BEAK	4	4	TIE	n/a	0	2	[0, 0, 0]	n/a	0	1	0	n/a	n/a	0.0	0	0	0	PAL2	1	R1091N
347.48	4.6	656981	STIM_ON	n/a	n/a	TIE	BEAK	4	4	TIE	n/a	0	2	[0, 0, 0]	n/a	1	1	4600	ALF7	ALF8	3000.0	50	230	300	PAL2	1	R1091N
347.687	4.0	657188	TEST_PROBE	n/a	wordpools/wordpool_EN.txt	TIE	BEAK	4	4	TIE	n/a	0	2	[0, 0, 0]	n/a	1	1	4600	ALF7	ALF8	3000.0	50	230	300	PAL2	1	R1091N
347.687	5.015	657188	REC_START	n/a	n/a	n/a	n/a	4	-999	n/a	n/a	0	2	[0, 0, 0]	n/a	1	1	4600	ALF7	ALF8	3000.0	50	230	300	PAL2	1	R1091N
352.702	0.002	662203	REC_EVENT	5.015	n/a	TIE	BEAK	4	4	TIE	<>	0	2	[0, 0, 0]	n/a	0	1	0	n/a	n/a	0.0	0	0	0	PAL2	1	R1091N
352.704	0.017	662205	REC_END	n/a	n/a	n/a	n/a	4	-999	n/a	n/a	-999	2	[0, 0, 0]	n/a	0	1	0	n/a	n/a	0.0	0	0	0	PAL2	1	R1091N
352.721	0.25	662222	TEST_ORIENT	n/a	n/a	ROSE	STONE	1	5	STONE	n/a	0	2	[0, 0, 0]	n/a	0	1	0	n/a	n/a	0.0	0	0	0	PAL2	1	R1091N
353.571	4.0	663072	TEST_PROBE	n/a	wordpools/wordpool_EN.txt	ROSE	STONE	1	5	STONE	n/a	0	2	[0, 0, 0]	n/a	0	1	0	n/a	n/a	0.0	0	0	0	PAL2	1	R1091N
353.572	5.003	663073	REC_START	n/a	n/a	n/a	n/a	1	-999	n/a	n/a	0	2	[0, 0, 0]	n/a	0	1	0	n/a	n/a	0.0	0	0	0	PAL2	1	R1091N
358.575	0.004	668075	REC_EVENT	5.003	n/a	ROSE	STONE	1	5	STONE	<>	0	2	[0, 0, 0]	n/a	0	1	0	n/a	n/a	0.0	0	0	0	PAL2	1	R1091N
358.579	0.01	668079	REC_END	n/a	n/a	n/a	n/a	1	-999	n/a	n/a	-999	2	[0, 0, 0]	n/a	0	1	0	n/a	n/a	0.0	0	0	0	PAL2	1	R1091N
358.589	0.25	668089	TEST_ORIENT	n/a	n/a	CHIEF	FLAG	6	6	FLAG	CHIEF	1	2	[0, 0, 0]	n/a	0	1	0	n/a	n/a	0.0	0	0	0	PAL2	1	R1091N
359.415	4.6	668915	STIM_ON	n/a	n/a	CHIEF	FLAG	6	6	FLAG	CHIEF	1	2	[0, 0, 0]	n/a	1	1	4600	ALF7	ALF8	3000.0	50	230	300	PAL2	1	R1091N
359.622	4.0	669122	TEST_PROBE	n/a	wordpools/wordpool_EN.txt	CHIEF	FLAG	6	6	FLAG	CHIEF	1	2	[0, 0, 0]	n/a	1	1	4600	ALF7	ALF8	3000.0	50	230	300	PAL2	1	R1091N
359.623	1.514	669123	REC_START	n/a	n/a	n/a	n/a	6	-999	n/a	CHIEF	1	2	[0, 0, 0]	n/a	1	1	4600	ALF7	ALF8	3000.0	50	230	300	PAL2	1	R1091N
361.137	3.495	670637	REC_EVENT	1.514	n/a	CHIEF	FLAG	6	6	FLAG	CHIEF	1	2	[0, 0, 0]	n/a	1	1	4600	ALF7	ALF8	3000.0	50	230	300	PAL2	1	R1091N
364.632	2.085	674132	REC_END	n/a	n/a	n/a	n/a	6	-999	n/a	n/a	-999	2	[0, 0, 0]	n/a	0	1	0	n/a	n/a	0.0	0	0	0	PAL2	1	R1091N
366.717	10.442	676217	ENCODING_START	n/a	n/a	n/a	n/a	0	-999	n/a	n/a	-999	3	[0, 0, 0]	n/a	0	1	0	n/a	n/a	0.0	0	0	0	PAL2	1	R1091N
377.159	0.25	686659	STUDY_ORIENT	n/a	n/a	WING	STAR	1	1	STAR	BOMB	0	3	[0, 0, 0]	n/a	0	1	0	n/a	n/a	0.0	0	0	0	PAL2	1	R1091N
378.126	4.0	687626	STUDY_PAIR	n/a	wordpools/wordpool_EN.txt	WING	STAR	1	1	STAR	BOMB	0	3	[0, 0, 0]	n/a	0	1	0	n/a	n/a	0.0	0	0	0	PAL2	1	R1091N
383.16	0.25	692660	STUDY_ORIENT	n/a	n/a	BROOM	CHALK	2	6	CHALK	n/a	0	3	[0, 0, 0]	n/a	0	1	0	n/a	n/a	0.0	0	0	0	PAL2	1	R1091N
383.993	4.0	693493	STUDY_PAIR	n/a	wordpools/wordpool_EN.txt	BROOM	CHALK	2	6	CHALK	n/a	0	3	[0, 0, 0]	n/a	0	1	0	n/a	n/a	0.0	0	0	0	PAL2	1	R1091N
389.011	0.25	698510	STUDY_ORIENT	n/a	n/a	BOMB	KEY	3	3	BOMB	n/a	0	3	[0, 0, 0]	n/a	0	1	0	n/a	n/a	0.0	0	0	0	PAL2	1	R1091N
389.978	4.0	699477	STUDY_PAIR	n/a	wordpools/wordpool_EN.txt	BOMB	KEY	3	3	BOMB	n/a	0	3	[0, 0, 0]	n/a	0	1	0	n/a	n/a	0.0	0	0	0	PAL2	1	R1091N
395.012	0.25	704511	STUDY_ORIENT	n/a	n/a	FILM	PLANT	4	2	PLANT	n/a	0	3	[0, 0, 0]	n/a	0	1	0	n/a	n/a	0.0	0	0	0	PAL2	1	R1091N
395.979	4.0	705478	STUDY_PAIR	n/a	wordpools/wordpool_EN.txt	FILM	PLANT	4	2	PLANT	n/a	0	3	[0, 0, 0]	n/a	0	1	0	n/a	n/a	0.0	0	0	0	PAL2	1	R1091N
401.013	0.25	710512	STUDY_ORIENT	n/a	n/a	MILK	STOOL	5	5	MILK	n/a	0	3	[0, 0, 0]	n/a	0	1	0	n/a	n/a	0.0	0	0	0	PAL2	1	R1091N
401.813	4.0	711312	STUDY_PAIR	n/a	wordpools/wordpool_EN.txt	MILK	STOOL	5	5	MILK	n/a	0	3	[0, 0, 0]	n/a	0	1	0	n/a	n/a	0.0	0	0	0	PAL2	1	R1091N
406.847	0.25	716346	STUDY_ORIENT	n/a	n/a	PEARL	LEG	6	4	LEG	n/a	0	3	[0, 0, 0]	n/a	0	1	0	n/a	n/a	0.0	0	0	0	PAL2	1	R1091N
407.664	4.0	717163	STUDY_PAIR	n/a	wordpools/wordpool_EN.txt	PEARL	LEG	6	4	LEG	n/a	0	3	[0, 0, 0]	n/a	0	1	0	n/a	n/a	0.0	0	0	0	PAL2	1	R1091N
411.682	0.999	721181	START	n/a	n/a	n/a	n/a	-999	-999	n/a	n/a	-999	3	[-999, -999, -999]	n/a	0	1	0	n/a	n/a	0.0	0	0	0	PAL2	1	R1091N
412.681	0.017	722180	MATH_START	n/a	n/a	n/a	n/a	-999	-999	n/a	n/a	-999	3	[0, 0, 0]	n/a	0	1	0	n/a	n/a	0.0	0	0	0	PAL2	1	R1091N
412.698	5.068	722197	PROB	5.043	n/a	n/a	n/a	-999	-999	n/a	n/a	-999	3	[5, 9, 6]	20	0	1	0	n/a	n/a	0.0	0	0	0	PAL2	1	R1091N
417.766	3.467	727265	PROB	3.439	n/a	n/a	n/a	-999	-999	n/a	n/a	-999	3	[1, 1, 4]	6	0	1	0	n/a	n/a	0.0	0	0	0	PAL2	1	R1091N
421.233	4.116	730731	PROB	4.084	n/a	n/a	n/a	-999	-999	n/a	n/a	-999	3	[2, 3, 8]	13	0	1	0	n/a	n/a	0.0	0	0	0	PAL2	1	R1091N
425.349	4.034	734847	PROB	3.999	n/a	n/a	n/a	-999	-999	n/a	n/a	-999	3	[7, 4, 7]	18	0	1	0	n/a	n/a	0.0	0	0	0	PAL2	1	R1091N
429.383	3.502	738881	PROB	3.502	n/a	n/a	n/a	-999	-999	n/a	n/a	-999	3	[2, 7, 7]	16	0	1	0	n/a	n/a	0.0	0	0	0	PAL2	1	R1091N
432.885	0.016	742383	STOP	n/a	n/a	n/a	n/a	-999	-999	n/a	n/a	-999	3	[-999, -999, -999]	n/a	0	1	0	n/a	n/a	0.0	0	0	0	PAL2	1	R1091N
432.901	0.0	742399	MATH_END	n/a	n/a	n/a	n/a	-999	-999	n/a	n/a	-999	3	[0, 0, 0]	n/a	0	1	0	n/a	n/a	0.0	0	0	0	PAL2	1	R1091N
432.901	0.017	742399	TEST_START	n/a	n/a	n/a	n/a	-999	-999	n/a	n/a	-999	3	[0, 0, 0]	n/a	0	1	0	n/a	n/a	0.0	0	0	0	PAL2	1	R1091N
432.918	0.25	742416	TEST_ORIENT	n/a	n/a	WING	STAR	1	1	STAR	BOMB	0	3	[0, 0, 0]	n/a	0	1	0	n/a	n/a	0.0	0	0	0	PAL2	1	R1091N
433.735	4.0	743233	TEST_PROBE	n/a	wordpools/wordpool_EN.txt	WING	STAR	1	1	STAR	BOMB	0	3	[0, 0, 0]	n/a	0	1	0	n/a	n/a	0.0	0	0	0	PAL2	1	R1091N
433.736	3.042	743234	REC_START	n/a	n/a	n/a	n/a	1	-999	n/a	BOMB	0	3	[0, 0, 0]	n/a	0	1	0	n/a	n/a	0.0	0	0	0	PAL2	1	R1091N
436.778	1.982	746276	REC_EVENT	3.042	n/a	WING	STAR	1	1	STAR	BOMB	0	3	[0, 0, 0]	n/a	0	1	0	n/a	n/a	0.0	0	0	0	PAL2	1	R1091N
438.76	0.009	748258	REC_END	n/a	n/a	n/a	n/a	1	-999	n/a	n/a	-999	3	[0, 0, 0]	n/a	0	1	0	n/a	n/a	0.0	0	0	0	PAL2	1	R1091N
438.769	0.25	748267	TEST_ORIENT	n/a	n/a	FILM	PLANT	4	2	PLANT	n/a	0	3	[0, 0, 0]	n/a	0	1	0	n/a	n/a	0.0	0	0	0	PAL2	1	R1091N
439.6	4.6	749098	STIM_ON	n/a	n/a	FILM	PLANT	4	2	PLANT	n/a	0	3	[0, 0, 0]	n/a	1	1	4600	ALF7	ALF8	3000.0	50	230	300	PAL2	1	R1091N
439.803	4.0	749301	TEST_PROBE	n/a	wordpools/wordpool_EN.txt	FILM	PLANT	4	2	PLANT	n/a	0	3	[0, 0, 0]	n/a	1	1	4600	ALF7	ALF8	3000.0	50	230	300	PAL2	1	R1091N
439.803	5.017	749301	REC_START	n/a	n/a	n/a	n/a	4	-999	n/a	n/a	0	3	[0, 0, 0]	n/a	1	1	4600	ALF7	ALF8	3000.0	50	230	300	PAL2	1	R1091N
444.82	0.004	754318	REC_END	n/a	n/a	n/a	n/a	4	-999	n/a	n/a	-999	3	[0, 0, 0]	n/a	0	1	0	n/a	n/a	0.0	0	0	0	PAL2	1	R1091N
444.824	0.013	754322	REC_EVENT	5.021	n/a	FILM	PLANT	4	2	PLANT	<>	0	3	[0, 0, 0]	n/a	0	1	0	n/a	n/a	0.0	0	0	0	PAL2	1	R1091N
444.837	0.25	754335	TEST_ORIENT	n/a	n/a	BOMB	KEY	3	3	BOMB	n/a	0	3	[0, 0, 0]	n/a	0	1	0	n/a	n/a	0.0	0	0	0	PAL2	1	R1091N
445.87	4.0	755368	TEST_PROBE	n/a	wordpools/wordpool_EN.txt	BOMB	KEY	3	3	BOMB	n/a	0	3	[0, 0, 0]	n/a	0	1	0	n/a	n/a	0.0	0	0	0	PAL2	1	R1091N
445.871	5.009	755369	REC_START	n/a	n/a	n/a	n/a	3	-999	n/a	n/a	0	3	[0, 0, 0]	n/a	0	1	0	n/a	n/a	0.0	0	0	0	PAL2	1	R1091N
450.88	0.002	760377	REC_EVENT	5.009	n/a	BOMB	KEY	3	3	BOMB	<>	0	3	[0, 0, 0]	n/a	0	1	0	n/a	n/a	0.0	0	0	0	PAL2	1	R1091N
450.882	0.006	760379	REC_END	n/a	n/a	n/a	n/a	3	-999	n/a	n/a	-999	3	[0, 0, 0]	n/a	0	1	0	n/a	n/a	0.0	0	0	0	PAL2	1	R1091N
450.888	0.25	760385	TEST_ORIENT	n/a	n/a	PEARL	LEG	6	4	LEG	n/a	0	3	[0, 0, 0]	n/a	0	1	0	n/a	n/a	0.0	0	0	0	PAL2	1	R1091N
451.619	4.6	761116	STIM_ON	n/a	n/a	PEARL	LEG	6	4	LEG	n/a	0	3	[0, 0, 0]	n/a	1	1	4600	ALF7	ALF8	3000.0	50	230	300	PAL2	1	R1091N
451.821	4.0	761318	TEST_PROBE	n/a	wordpools/wordpool_EN.txt	PEARL	LEG	6	4	LEG	n/a	0	3	[0, 0, 0]	n/a	1	1	4600	ALF7	ALF8	3000.0	50	230	300	PAL2	1	R1091N
451.821	5.015	761318	REC_START	n/a	n/a	n/a	n/a	6	-999	n/a	n/a	0	3	[0, 0, 0]	n/a	1	1	4600	ALF7	ALF8	3000.0	50	230	300	PAL2	1	R1091N
456.836	0.003	766333	REC_EVENT	5.015	n/a	PEARL	LEG	6	4	LEG	<>	0	3	[0, 0, 0]	n/a	0	1	0	n/a	n/a	0.0	0	0	0	PAL2	1	R1091N
456.839	0.016	766336	REC_END	n/a	n/a	n/a	n/a	6	-999	n/a	n/a	-999	3	[0, 0, 0]	n/a	0	1	0	n/a	n/a	0.0	0	0	0	PAL2	1	R1091N
456.855	0.25	766352	TEST_ORIENT	n/a	n/a	MILK	STOOL	5	5	MILK	n/a	0	3	[0, 0, 0]	n/a	0	1	0	n/a	n/a	0.0	0	0	0	PAL2	1	R1091N
457.872	4.0	767369	TEST_PROBE	n/a	wordpools/wordpool_EN.txt	MILK	STOOL	5	5	MILK	n/a	0	3	[0, 0, 0]	n/a	0	1	0	n/a	n/a	0.0	0	0	0	PAL2	1	R1091N
457.873	5.008	767370	REC_START	n/a	n/a	n/a	n/a	5	-999	n/a	n/a	0	3	[0, 0, 0]	n/a	0	1	0	n/a	n/a	0.0	0	0	0	PAL2	1	R1091N
462.881	0.001	772378	REC_END	n/a	n/a	n/a	n/a	5	-999	n/a	n/a	-999	3	[0, 0, 0]	n/a	0	1	0	n/a	n/a	0.0	0	0	0	PAL2	1	R1091N
462.882	0.008	772379	REC_EVENT	5.009	n/a	MILK	STOOL	5	5	MILK	<>	0	3	[0, 0, 0]	n/a	0	1	0	n/a	n/a	0.0	0	0	0	PAL2	1	R1091N
462.89	0.25	772387	TEST_ORIENT	n/a	n/a	BROOM	CHALK	2	6	CHALK	n/a	0	3	[0, 0, 0]	n/a	0	1	0	n/a	n/a	0.0	0	0	0	PAL2	1	R1091N
463.661	4.6	773158	STIM_ON	n/a	n/a	BROOM	CHALK	2	6	CHALK	n/a	0	3	[0, 0, 0]	n/a	1	1	4600	ALF7	ALF8	3000.0	50	230	300	PAL2	1	R1091N
463.873	4.0	773370	TEST_PROBE	n/a	wordpools/wordpool_EN.txt	BROOM	CHALK	2	6	CHALK	n/a	0	3	[0, 0, 0]	n/a	1	1	4600	ALF7	ALF8	3000.0	50	230	300	PAL2	1	R1091N
463.874	4.739	773371	REC_START	n/a	n/a	n/a	n/a	2	-999	n/a	n/a	0	3	[0, 0, 0]	n/a	1	1	4600	ALF7	ALF8	3000.0	50	230	300	PAL2	1	R1091N
468.613	0.269	778110	REC_EVENT	4.739	n/a	BROOM	CHALK	2	6	CHALK	<>	0	3	[0, 0, 0]	n/a	0	1	0	n/a	n/a	0.0	0	0	0	PAL2	1	R1091N
468.882	3.123	778379	REC_END	n/a	n/a	n/a	n/a	2	-999	n/a	n/a	-999	3	[0, 0, 0]	n/a	0	1	0	n/a	n/a	0.0	0	0	0	PAL2	1	R1091N
472.005	10.437	781502	ENCODING_START	n/a	n/a	n/a	n/a	0	-999	n/a	n/a	-999	4	[0, 0, 0]	n/a	0	1	0	n/a	n/a	0.0	0	0	0	PAL2	1	R1091N
482.442	0.25	791938	STUDY_ORIENT	n/a	n/a	FLUTE	EGG	1	1	EGG	n/a	0	4	[0, 0, 0]	n/a	0	1	0	n/a	n/a	0.0	0	0	0	PAL2	1	R1091N
483.327	4.0	792823	STUDY_PAIR	n/a	wordpools/wordpool_EN.txt	FLUTE	EGG	1	1	EGG	n/a	0	4	[0, 0, 0]	n/a	0	1	0	n/a	n/a	0.0	0	0	0	PAL2	1	R1091N
488.36	0.25	797856	STUDY_ORIENT	n/a	n/a	BENCH	NOSE	2	2	NOSE	n/a	0	4	[0, 0, 0]	n/a	0	1	0	n/a	n/a	0.0	0	0	0	PAL2	1	R1091N
489.228	4.0	798724	STUDY_PAIR	n/a	wordpools/wordpool_EN.txt	BENCH	NOSE	2	2	NOSE	n/a	0	4	[0, 0, 0]	n/a	0	1	0	n/a	n/a	0.0	0	0	0	PAL2	1	R1091N
494.262	0.25	803758	STUDY_ORIENT	n/a	n/a	STEAM	TRAY	3	3	STEAM	n/a	0	4	[0, 0, 0]	n/a	0	1	0	n/a	n/a	0.0	0	0	0	PAL2	1	R1091N
495.112	4.0	804608	STUDY_PAIR	n/a	wordpools/wordpool_EN.txt	STEAM	TRAY	3	3	STEAM	n/a	0	4	[0, 0, 0]	n/a	0	1	0	n/a	n/a	0.0	0	0	0	PAL2	1	R1091N
500.146	0.25	809642	STUDY_ORIENT	n/a	n/a	STOVE	BIRD	4	4	STOVE	n/a	0	4	[0, 0, 0]	n/a	0	1	0	n/a	n/a	0.0	0	0	0	PAL2	1	R1091N
501.163	4.0	810659	STUDY_PAIR	n/a	wordpools/wordpool_EN.txt	STOVE	BIRD	4	4	STOVE	n/a	0	4	[0, 0, 0]	n/a	0	1	0	n/a	n/a	0.0	0	0	0	PAL2	1	R1091N
506.197	0.25	815693	STUDY_ORIENT	n/a	n/a	STREET	WAVE	5	5	STREET	n/a	0	4	[0, 0, 0]	n/a	0	1	0	n/a	n/a	0.0	0	0	0	PAL2	1	R1091N
507.064	4.0	816560	STUDY_PAIR	n/a	wordpools/wordpool_EN.txt	STREET	WAVE	5	5	STREET	n/a	0	4	[0, 0, 0]	n/a	0	1	0	n/a	n/a	0.0	0	0	0	PAL2	1	R1091N
512.098	0.25	821593	STUDY_ORIENT	n/a	n/a	EAR	SLEEVE	6	6	EAR	n/a	0	4	[0, 0, 0]	n/a	0	1	0	n/a	n/a	0.0	0	0	0	PAL2	1	R1091N
512.931	4.0	822426	STUDY_PAIR	n/a	wordpools/wordpool_EN.txt	EAR	SLEEVE	6	6	EAR	n/a	0	4	[0, 0, 0]	n/a	0	1	0	n/a	n/a	0.0	0	0	0	PAL2	1	R1091N
516.932	1.0	826427	START	n/a	n/a	n/a	n/a	-999	-999	n/a	n/a	-999	4	[-999, -999, -999]	n/a	0	1	0	n/a	n/a	0.0	0	0	0	PAL2	1	R1091N
517.932	0.017	827427	MATH_START	n/a	n/a	n/a	n/a	-999	-999	n/a	n/a	-999	4	[0, 0, 0]	n/a	0	1	0	n/a	n/a	0.0	0	0	0	PAL2	1	R1091N
517.949	5.268	827444	PROB	5.24	n/a	n/a	n/a	-999	-999	n/a	n/a	-999	4	[9, 1, 8]	18	0	1	0	n/a	n/a	0.0	0	0	0	PAL2	1	R1091N
523.217	3.95	832712	PROB	3.924	n/a	n/a	n/a	-999	-999	n/a	n/a	-999	4	[5, 7, 6]	18	0	1	0	n/a	n/a	0.0	0	0	0	PAL2	1	R1091N
527.167	5.818	836662	PROB	5.798	n/a	n/a	n/a	-999	-999	n/a	n/a	-999	4	[8, 4, 2]	16	0	1	0	n/a	n/a	0.0	0	0	0	PAL2	1	R1091N
532.985	4.844	842480	PROB	4.844	n/a	n/a	n/a	-999	-999	n/a	n/a	-999	4	[5, 9, 9]	24	0	1	0	n/a	n/a	0.0	0	0	0	PAL2	1	R1091N
537.829	0.007	847324	STOP	n/a	n/a	n/a	n/a	-999	-999	n/a	n/a	-999	4	[-999, -999, -999]	n/a	0	1	0	n/a	n/a	0.0	0	0	0	PAL2	1	R1091N
537.836	0.0	847331	MATH_END	n/a	n/a	n/a	n/a	-999	-999	n/a	n/a	-999	4	[0, 0, 0]	n/a	0	1	0	n/a	n/a	0.0	0	0	0	PAL2	1	R1091N
537.836	0.017	847331	TEST_START	n/a	n/a	n/a	n/a	-999	-999	n/a	n/a	-999	4	[0, 0, 0]	n/a	0	1	0	n/a	n/a	0.0	0	0	0	PAL2	1	R1091N
537.853	0.25	847348	TEST_ORIENT	n/a	n/a	FLUTE	EGG	1	1	EGG	n/a	0	4	[0, 0, 0]	n/a	0	1	0	n/a	n/a	0.0	0	0	0	PAL2	1	R1091N
538.449	4.6	847944	STIM_ON	n/a	n/a	FLUTE	EGG	1	1	EGG	n/a	0	4	[0, 0, 0]	n/a	1	1	4600	ALF7	ALF8	3000.0	50	230	300	PAL2	1	R1091N
538.653	4.0	848148	TEST_PROBE	n/a	wordpools/wordpool_EN.txt	FLUTE	EGG	1	1	EGG	n/a	0	4	[0, 0, 0]	n/a	1	1	4600	ALF7	ALF8	3000.0	50	230	300	PAL2	1	R1091N
538.654	5.021	848149	REC_START	n/a	n/a	n/a	n/a	1	-999	n/a	n/a	0	4	[0, 0, 0]	n/a	1	1	4600	ALF7	ALF8	3000.0	50	230	300	PAL2	1	R1091N
543.675	0.003	853169	REC_EVENT	5.021	n/a	FLUTE	EGG	1	1	EGG	<>	0	4	[0, 0, 0]	n/a	0	1	0	n/a	n/a	0.0	0	0	0	PAL2	1	R1091N
543.678	0.009	853172	REC_END	n/a	n/a	n/a	n/a	1	-999	n/a	n/a	-999	4	[0, 0, 0]	n/a	0	1	0	n/a	n/a	0.0	0	0	0	PAL2	1	R1091N
543.687	0.25	853181	TEST_ORIENT	n/a	n/a	BENCH	NOSE	2	2	NOSE	n/a	0	4	[0, 0, 0]	n/a	0	1	0	n/a	n/a	0.0	0	0	0	PAL2	1	R1091N
544.536	4.0	854030	TEST_PROBE	n/a	wordpools/wordpool_EN.txt	BENCH	NOSE	2	2	NOSE	n/a	0	4	[0, 0, 0]	n/a	0	1	0	n/a	n/a	0.0	0	0	0	PAL2	1	R1091N
544.537	5.016	854031	REC_START	n/a	n/a	n/a	n/a	2	-999	n/a	n/a	0	4	[0, 0, 0]	n/a	0	1	0	n/a	n/a	0.0	0	0	0	PAL2	1	R1091N
549.553	0.005	859047	REC_END	n/a	n/a	n/a	n/a	2	-999	n/a	n/a	-999	4	[0, 0, 0]	n/a	0	1	0	n/a	n/a	0.0	0	0	0	PAL2	1	R1091N
549.558	0.013	859052	REC_EVENT	5.021	n/a	BENCH	NOSE	2	2	NOSE	<>	0	4	[0, 0, 0]	n/a	0	1	0	n/a	n/a	0.0	0	0	0	PAL2	1	R1091N
549.571	0.25	859065	TEST_ORIENT	n/a	n/a	STEAM	TRAY	3	3	STEAM	n/a	0	4	[0, 0, 0]	n/a	0	1	0	n/a	n/a	0.0	0	0	0	PAL2	1	R1091N
550.279	4.6	859773	STIM_ON	n/a	n/a	STEAM	TRAY	3	3	STEAM	n/a	0	4	[0, 0, 0]	n/a	1	1	4600	ALF7	ALF8	3000.0	50	230	300	PAL2	1	R1091N
550.487	4.0	859981	TEST_PROBE	n/a	wordpools/wordpool_EN.txt	STEAM	TRAY	3	3	STEAM	n/a	0	4	[0, 0, 0]	n/a	1	1	4600	ALF7	ALF8	3000.0	50	230	300	PAL2	1	R1091N
550.488	1.295	859982	REC_START	n/a	n/a	n/a	n/a	3	-999	n/a	n/a	0	4	[0, 0, 0]	n/a	1	1	4600	ALF7	ALF8	3000.0	50	230	300	PAL2	1	R1091N
551.783	3.721	861277	REC_EVENT	1.295	n/a	STEAM	TRAY	3	3	STEAM	<>	0	4	[0, 0, 0]	n/a	1	1	4600	ALF7	ALF8	3000.0	50	230	300	PAL2	1	R1091N
555.504	0.017	864998	REC_END	n/a	n/a	n/a	n/a	3	-999	n/a	n/a	-999	4	[0, 0, 0]	n/a	0	1	0	n/a	n/a	0.0	0	0	0	PAL2	1	R1091N
555.521	0.25	865015	TEST_ORIENT	n/a	n/a	STOVE	BIRD	4	4	STOVE	n/a	0	4	[0, 0, 0]	n/a	0	1	0	n/a	n/a	0.0	0	0	0	PAL2	1	R1091N
556.306	4.0	865800	TEST_PROBE	n/a	wordpools/wordpool_EN.txt	STOVE	BIRD	4	4	STOVE	n/a	0	4	[0, 0, 0]	n/a	0	1	0	n/a	n/a	0.0	0	0	0	PAL2	1	R1091N
556.306	5.015	865800	REC_START	n/a	n/a	n/a	n/a	4	-999	n/a	n/a	0	4	[0, 0, 0]	n/a	0	1	0	n/a	n/a	0.0	0	0	0	PAL2	1	R1091N
561.321	0.002	870815	REC_EVENT	5.015	n/a	STOVE	BIRD	4	4	STOVE	<>	0	4	[0, 0, 0]	n/a	0	1	0	n/a	n/a	0.0	0	0	0	PAL2	1	R1091N
561.323	0.016	870817	REC_END	n/a	n/a	n/a	n/a	4	-999	n/a	n/a	-999	4	[0, 0, 0]	n/a	0	1	0	n/a	n/a	0.0	0	0	0	PAL2	1	R1091N
561.339	0.25	870833	TEST_ORIENT	n/a	n/a	STREET	WAVE	5	5	STREET	n/a	0	4	[0, 0, 0]	n/a	0	1	0	n/a	n/a	0.0	0	0	0	PAL2	1	R1091N
562.062	4.6	871556	STIM_ON	n/a	n/a	STREET	WAVE	5	5	STREET	n/a	0	4	[0, 0, 0]	n/a	1	1	4600	ALF7	ALF8	3000.0	50	230	300	PAL2	1	R1091N
562.273	4.0	871767	TEST_PROBE	n/a	wordpools/wordpool_EN.txt	STREET	WAVE	5	5	STREET	n/a	0	4	[0, 0, 0]	n/a	1	1	4600	ALF7	ALF8	3000.0	50	230	300	PAL2	1	R1091N
562.274	5.007	871768	REC_START	n/a	n/a	n/a	n/a	5	-999	n/a	n/a	0	4	[0, 0, 0]	n/a	1	1	4600	ALF7	ALF8	3000.0	50	230	300	PAL2	1	R1091N
567.281	0.002	876775	REC_END	n/a	n/a	n/a	n/a	5	-999	n/a	n/a	-999	4	[0, 0, 0]	n/a	0	1	0	n/a	n/a	0.0	0	0	0	PAL2	1	R1091N
567.283	0.008	876777	REC_EVENT	5.009	n/a	STREET	WAVE	5	5	STREET	<>	0	4	[0, 0, 0]	n/a	0	1	0	n/a	n/a	0.0	0	0	0	PAL2	1	R1091N
567.291	0.25	876785	TEST_ORIENT	n/a	n/a	EAR	SLEEVE	6	6	EAR	n/a	0	4	[0, 0, 0]	n/a	0	1	0	n/a	n/a	0.0	0	0	0	PAL2	1	R1091N
568.174	4.0	877668	TEST_PROBE	n/a	wordpools/wordpool_EN.txt	EAR	SLEEVE	6	6	EAR	n/a	0	4	[0, 0, 0]	n/a	0	1	0	n/a	n/a	0.0	0	0	0	PAL2	1	R1091N
568.175	5.003	877669	REC_START	n/a	n/a	n/a	n/a	6	-999	n/a	n/a	0	4	[0, 0, 0]	n/a	0	1	0	n/a	n/a	0.0	0	0	0	PAL2	1	R1091N
573.178	0.005	882672	REC_EVENT	5.003	n/a	EAR	SLEEVE	6	6	EAR	<>	0	4	[0, 0, 0]	n/a	0	1	0	n/a	n/a	0.0	0	0	0	PAL2	1	R1091N
573.183	1.71	882677	REC_END	n/a	n/a	n/a	n/a	6	-999	n/a	n/a	-999	4	[0, 0, 0]	n/a	0	1	0	n/a	n/a	0.0	0	0	0	PAL2	1	R1091N
574.893	10.45	884386	ENCODING_START	n/a	n/a	n/a	n/a	0	-999	n/a	n/a	-999	5	[0, 0, 0]	n/a	0	1	0	n/a	n/a	0.0	0	0	0	PAL2	1	R1091N
585.343	0.25	894836	STUDY_ORIENT	n/a	n/a	BOAT	SHEEP	1	3	BOAT	SAIL	0	5	[0, 0, 0]	n/a	0	1	0	n/a	n/a	0.0	0	0	0	PAL2	1	R1091N
586.244	4.0	895737	STUDY_PAIR	n/a	wordpools/wordpool_EN.txt	BOAT	SHEEP	1	3	BOAT	SAIL	0	5	[0, 0, 0]	n/a	0	1	0	n/a	n/a	0.0	0	0	0	PAL2	1	R1091N
591.278	0.25	900771	STUDY_ORIENT	n/a	n/a	SAIL	FRUIT	2	2	FRUIT	n/a	0	5	[0, 0, 0]	n/a	0	1	0	n/a	n/a	0.0	0	0	0	PAL2	1	R1091N
591.901	4.6	901394	STIM_ON	n/a	n/a	SAIL	FRUIT	2	2	FRUIT	n/a	0	5	[0, 0, 0]	n/a	1	1	4600	ALF7	ALF8	3000.0	50	230	300	PAL2	1	R1091N
592.112	4.0	901605	STUDY_PAIR	n/a	wordpools/wordpool_EN.txt	SAIL	FRUIT	2	2	FRUIT	n/a	0	5	[0, 0, 0]	n/a	1	1	4600	ALF7	ALF8	3000.0	50	230	300	PAL2	1	R1091N
597.146	0.25	906639	STUDY_ORIENT	n/a	n/a	BUSH	BLUSH	3	5	BUSH	n/a	0	5	[0, 0, 0]	n/a	0	1	0	n/a	n/a	0.0	0	0	0	PAL2	1	R1091N
597.979	4.0	907472	STUDY_PAIR	n/a	wordpools/wordpool_EN.txt	BUSH	BLUSH	3	5	BUSH	n/a	0	5	[0, 0, 0]	n/a	0	1	0	n/a	n/a	0.0	0	0	0	PAL2	1	R1091N
602.997	0.25	912490	STUDY_ORIENT	n/a	n/a	CAPE	TOAD	4	6	CAPE	n/a	0	5	[0, 0, 0]	n/a	0	1	0	n/a	n/a	0.0	0	0	0	PAL2	1	R1091N
603.722	4.6	913215	STIM_ON	n/a	n/a	CAPE	TOAD	4	6	CAPE	n/a	0	5	[0, 0, 0]	n/a	1	1	4600	ALF7	ALF8	3000.0	50	230	300	PAL2	1	R1091N
603.93	4.0	913423	STUDY_PAIR	n/a	wordpools/wordpool_EN.txt	CAPE	TOAD	4	6	CAPE	n/a	0	5	[0, 0, 0]	n/a	1	1	4600	ALF7	ALF8	3000.0	50	230	300	PAL2	1	R1091N
608.948	0.25	918440	STUDY_ORIENT	n/a	n/a	TOE	BOY	5	1	BOY	TOE	1	5	[0, 0, 0]	n/a	0	1	0	n/a	n/a	0.0	0	0	0	PAL2	1	R1091N
609.731	4.0	919223	STUDY_PAIR	n/a	wordpools/wordpool_EN.txt	TOE	BOY	5	1	BOY	TOE	1	5	[0, 0, 0]	n/a	0	1	0	n/a	n/a	0.0	0	0	0	PAL2	1	R1091N
614.749	0.25	924241	STUDY_ORIENT	n/a	n/a	FAN	DART	6	4	DART	n/a	0	5	[0, 0, 0]	n/a	0	1	0	n/a	n/a	0.0	0	0	0	PAL2	1	R1091N
615.55	4.6	925042	STIM_ON	n/a	n/a	FAN	DART	6	4	DART	n/a	0	5	[0, 0, 0]	n/a	1	1	4600	ALF7	ALF8	3000.0	50	230	300	PAL2	1	R1091N
615.766	4.0	925258	STUDY_PAIR	n/a	wordpools/wordpool_EN.txt	FAN	DART	6	4	DART	n/a	0	5	[0, 0, 0]	n/a	1	1	4600	ALF7	ALF8	3000.0	50	230	300	PAL2	1	R1091N
619.784	0.999	929276	START	n/a	n/a	n/a	n/a	-999	-999	n/a	n/a	-999	5	[-999, -999, -999]	n/a	0	1	0	n/a	n/a	0.0	0	0	0	PAL2	1	R1091N
620.783	0.017	930275	MATH_START	n/a	n/a	n/a	n/a	-999	-999	n/a	n/a	-999	5	[0, 0, 0]	n/a	0	1	0	n/a	n/a	0.0	0	0	0	PAL2	1	R1091N
620.8	3.984	930292	PROB	3.957	n/a	n/a	n/a	-999	-999	n/a	n/a	-999	5	[8, 2, 6]	16	0	1	0	n/a	n/a	0.0	0	0	0	PAL2	1	R1091N
624.784	3.65	934276	PROB	3.628	n/a	n/a	n/a	-999	-999	n/a	n/a	-999	5	[3, 2, 6]	11	0	1	0	n/a	n/a	0.0	0	0	0	PAL2	1	R1091N
628.434	3.083	937926	PROB	3.058	n/a	n/a	n/a	-999	-999	n/a	n/a	-999	5	[3, 1, 5]	9	0	1	0	n/a	n/a	0.0	0	0	0	PAL2	1	R1091N
631.517	6.236	941009	PROB	6.216	n/a	n/a	n/a	-999	-999	n/a	n/a	-999	5	[7, 1, 5]	18	0	1	0	n/a	n/a	0.0	0	0	0	PAL2	1	R1091N
637.753	5.852	947244	PROB	5.852	n/a	n/a	n/a	-999	-999	n/a	n/a	-999	5	[2, 9, 6]	17	0	1	0	n/a	n/a	0.0	0	0	0	PAL2	1	R1091N
643.605	0.015	953096	STOP	n/a	n/a	n/a	n/a	-999	-999	n/a	n/a	-999	5	[-999, -999, -999]	n/a	0	1	0	n/a	n/a	0.0	0	0	0	PAL2	1	R1091N
643.62	0.0	953111	TEST_START	n/a	n/a	n/a	n/a	-999	-999	n/a	n/a	-999	5	[0, 0, 0]	n/a	0	1	0	n/a	n/a	0.0	0	0	0	PAL2	1	R1091N
643.62	0.017	953111	MATH_END	n/a	n/a	n/a	n/a	-999	-999	n/a	n/a	-999	5	[0, 0, 0]	n/a	0	1	0	n/a	n/a	0.0	0	0	0	PAL2	1	R1091N
643.637	0.25	953128	TEST_ORIENT	n/a	n/a	TOE	BOY	5	1	BOY	TOE	1	5	[0, 0, 0]	n/a	0	1	0	n/a	n/a	0.0	0	0	0	PAL2	1	R1091N
644.436	4.0	953927	TEST_PROBE	n/a	wordpools/wordpool_EN.txt	TOE	BOY	5	1	BOY	TOE	1	5	[0, 0, 0]	n/a	0	1	0	n/a	n/a	0.0	0	0	0	PAL2	1	R1091N
644.437	1.451	953928	REC_START	n/a	n/a	n/a	n/a	5	-999	n/a	TOE	1	5	[0, 0, 0]	n/a	0	1	0	n/a	n/a	0.0	0	0	0	PAL2	1	R1091N
645.888	1.291	955379	REC_EVENT	1.451	n/a	TOE	BOY	5	1	BOY	TIE	0	5	[0, 0, 0]	n/a	0	1	0	n/a	n/a	0.0	0	0	0	PAL2	1	R1091N
647.179	2.283	956670	REC_EVENT	2.742	n/a	TOE	BOY	5	1	BOY	TOE	1	5	[0, 0, 0]	n/a	0	1	0	n/a	n/a	0.0	0	0	0	PAL2	1	R1091N
649.462	0.008	958953	REC_END	n/a	n/a	n/a	n/a	5	-999	n/a	n/a	-999	5	[0, 0, 0]	n/a	0	1	0	n/a	n/a	0.0	0	0	0	PAL2	1	R1091N
649.47	0.25	958961	TEST_ORIENT	n/a	n/a	SAIL	FRUIT	2	2	FRUIT	n/a	0	5	[0, 0, 0]	n/a	0	1	0	n/a	n/a	0.0	0	0	0	PAL2	1	R1091N
650.371	4.0	959862	TEST_PROBE	n/a	wordpools/wordpool_EN.txt	SAIL	FRUIT	2	2	FRUIT	n/a	0	5	[0, 0, 0]	n/a	0	1	0	n/a	n/a	0.0	0	0	0	PAL2	1	R1091N
650.371	5.026	959862	REC_START	n/a	n/a	n/a	n/a	2	-999	n/a	n/a	0	5	[0, 0, 0]	n/a	0	1	0	n/a	n/a	0.0	0	0	0	PAL2	1	R1091N
655.397	0.001	964888	REC_END	n/a	n/a	n/a	n/a	2	-999	n/a	n/a	-999	5	[0, 0, 0]	n/a	0	1	0	n/a	n/a	0.0	0	0	0	PAL2	1	R1091N
655.398	0.006	964889	REC_EVENT	5.027	n/a	SAIL	FRUIT	2	2	FRUIT	<>	0	5	[0, 0, 0]	n/a	0	1	0	n/a	n/a	0.0	0	0	0	PAL2	1	R1091N
655.404	0.25	964895	TEST_ORIENT	n/a	n/a	BOAT	SHEEP	1	3	BOAT	SAIL	0	5	[0, 0, 0]	n/a	0	1	0	n/a	n/a	0.0	0	0	0	PAL2	1	R1091N
656.323	4.0	965814	TEST_PROBE	n/a	wordpools/wordpool_EN.txt	BOAT	SHEEP	1	3	BOAT	SAIL	0	5	[0, 0, 0]	n/a	0	1	0	n/a	n/a	0.0	0	0	0	PAL2	1	R1091N
656.323	1.751	965814	REC_START	n/a	n/a	n/a	n/a	1	-999	n/a	SAIL	0	5	[0, 0, 0]	n/a	0	1	0	n/a	n/a	0.0	0	0	0	PAL2	1	R1091N
658.074	3.265	967565	REC_EVENT	1.751	n/a	BOAT	SHEEP	1	3	BOAT	SAIL	0	5	[0, 0, 0]	n/a	0	1	0	n/a	n/a	0.0	0	0	0	PAL2	1	R1091N
661.339	0.016	970830	REC_END	n/a	n/a	n/a	n/a	1	-999	n/a	n/a	-999	5	[0, 0, 0]	n/a	0	1	0	n/a	n/a	0.0	0	0	0	PAL2	1	R1091N
661.355	0.25	970846	TEST_ORIENT	n/a	n/a	FAN	DART	6	4	DART	n/a	0	5	[0, 0, 0]	n/a	0	1	0	n/a	n/a	0.0	0	0	0	PAL2	1	R1091N
662.157	4.0	971648	TEST_PROBE	n/a	wordpools/wordpool_EN.txt	FAN	DART	6	4	DART	n/a	0	5	[0, 0, 0]	n/a	0	1	0	n/a	n/a	0.0	0	0	0	PAL2	1	R1091N
662.157	5.015	971648	REC_START	n/a	n/a	n/a	n/a	6	-999	n/a	n/a	0	5	[0, 0, 0]	n/a	0	1	0	n/a	n/a	0.0	0	0	0	PAL2	1	R1091N
667.172	0.002	976662	REC_EVENT	5.015	n/a	FAN	DART	6	4	DART	<>	0	5	[0, 0, 0]	n/a	0	1	0	n/a	n/a	0.0	0	0	0	PAL2	1	R1091N
667.174	0.017	976664	REC_END	n/a	n/a	n/a	n/a	6	-999	n/a	n/a	-999	5	[0, 0, 0]	n/a	0	1	0	n/a	n/a	0.0	0	0	0	PAL2	1	R1091N
667.191	0.25	976681	TEST_ORIENT	n/a	n/a	BUSH	BLUSH	3	5	BUSH	n/a	0	5	[0, 0, 0]	n/a	0	1	0	n/a	n/a	0.0	0	0	0	PAL2	1	R1091N
668.141	4.0	977631	TEST_PROBE	n/a	wordpools/wordpool_EN.txt	BUSH	BLUSH	3	5	BUSH	n/a	0	5	[0, 0, 0]	n/a	0	1	0	n/a	n/a	0.0	0	0	0	PAL2	1	R1091N
668.142	5.008	977632	REC_START	n/a	n/a	n/a	n/a	3	-999	n/a	n/a	0	5	[0, 0, 0]	n/a	0	1	0	n/a	n/a	0.0	0	0	0	PAL2	1	R1091N
673.15	0.001	982640	REC_END	n/a	n/a	n/a	n/a	3	-999	n/a	n/a	-999	5	[0, 0, 0]	n/a	0	1	0	n/a	n/a	0.0	0	0	0	PAL2	1	R1091N
673.151	0.008	982641	REC_EVENT	5.009	n/a	BUSH	BLUSH	3	5	BUSH	<>	0	5	[0, 0, 0]	n/a	0	1	0	n/a	n/a	0.0	0	0	0	PAL2	1	R1091N
673.159	0.25	982649	TEST_ORIENT	n/a	n/a	CAPE	TOAD	4	6	CAPE	n/a	0	5	[0, 0, 0]	n/a	0	1	0	n/a	n/a	0.0	0	0	0	PAL2	1	R1091N
674.026	4.0	983516	TEST_PROBE	n/a	wordpools/wordpool_EN.txt	CAPE	TOAD	4	6	CAPE	n/a	0	5	[0, 0, 0]	n/a	0	1	0	n/a	n/a	0.0	0	0	0	PAL2	1	R1091N
674.026	5.015	983516	REC_START	n/a	n/a	n/a	n/a	4	-999	n/a	n/a	0	5	[0, 0, 0]	n/a	0	1	0	n/a	n/a	0.0	0	0	0	PAL2	1	R1091N
679.041	0.002	988531	REC_EVENT	5.015	n/a	CAPE	TOAD	4	6	CAPE	<>	0	5	[0, 0, 0]	n/a	0	1	0	n/a	n/a	0.0	0	0	0	PAL2	1	R1091N
679.043	1.866	988533	REC_END	n/a	n/a	n/a	n/a	4	-999	n/a	n/a	-999	5	[0, 0, 0]	n/a	0	1	0	n/a	n/a	0.0	0	0	0	PAL2	1	R1091N
680.909	10.452	990399	ENCODING_START	n/a	n/a	n/a	n/a	0	-999	n/a	n/a	-999	6	[0, 0, 0]	n/a	0	1	0	n/a	n/a	0.0	0	0	0	PAL2	1	R1091N
691.361	0.25	1000851	STUDY_ORIENT	n/a	n/a	MULE	SALT	1	5	SALT	n/a	0	6	[0, 0, 0]	n/a	0	1	0	n/a	n/a	0.0	0	0	0	PAL2	1	R1091N
692.117	4.6	1001607	STIM_ON	n/a	n/a	MULE	SALT	1	5	SALT	n/a	0	6	[0, 0, 0]	n/a	1	1	4600	ALF7	ALF8	3000.0	50	230	300	PAL2	1	R1091N
692.329	4.0	1001819	STUDY_PAIR	n/a	wordpools/wordpool_EN.txt	MULE	SALT	1	5	SALT	n/a	0	6	[0, 0, 0]	n/a	1	1	4600	ALF7	ALF8	3000.0	50	230	300	PAL2	1	R1091N
697.362	0.25	1006852	STUDY_ORIENT	n/a	n/a	CRANE	WHALE	2	4	CRANE	n/a	0	6	[0, 0, 0]	n/a	0	1	0	n/a	n/a	0.0	0	0	0	PAL2	1	R1091N
698.163	4.0	1007653	STUDY_PAIR	n/a	wordpools/wordpool_EN.txt	CRANE	WHALE	2	4	CRANE	n/a	0	6	[0, 0, 0]	n/a	0	1	0	n/a	n/a	0.0	0	0	0	PAL2	1	R1091N
703.197	0.25	1012686	STUDY_ORIENT	n/a	n/a	MAZE	SCHOOL	3	3	MAZE	SCHOOL	1	6	[0, 0, 0]	n/a	0	1	0	n/a	n/a	0.0	0	0	0	PAL2	1	R1091N
703.939	4.6	1013428	STIM_ON	n/a	n/a	MAZE	SCHOOL	3	3	MAZE	SCHOOL	1	6	[0, 0, 0]	n/a	1	1	4600	ALF7	ALF8	3000.0	50	230	300	PAL2	1	R1091N
704.147	4.0	1013636	STUDY_PAIR	n/a	wordpools/wordpool_EN.txt	MAZE	SCHOOL	3	3	MAZE	SCHOOL	1	6	[0, 0, 0]	n/a	1	1	4600	ALF7	ALF8	3000.0	50	230	300	PAL2	1	R1091N
709.165	0.25	1018654	STUDY_ORIENT	n/a	n/a	PEACH	BATH	4	6	BATH	n/a	0	6	[0, 0, 0]	n/a	0	1	0	n/a	n/a	0.0	0	0	0	PAL2	1	R1091N
710.098	4.0	1019587	STUDY_PAIR	n/a	wordpools/wordpool_EN.txt	PEACH	BATH	4	6	BATH	n/a	0	6	[0, 0, 0]	n/a	0	1	0	n/a	n/a	0.0	0	0	0	PAL2	1	R1091N
715.116	0.25	1024605	STUDY_ORIENT	n/a	n/a	STRAW	ROCK	5	1	ROCK	n/a	0	6	[0, 0, 0]	n/a	0	1	0	n/a	n/a	0.0	0	0	0	PAL2	1	R1091N
715.807	4.6	1025296	STIM_ON	n/a	n/a	STRAW	ROCK	5	1	ROCK	n/a	0	6	[0, 0, 0]	n/a	1	1	4600	ALF7	ALF8	3000.0	50	230	300	PAL2	1	R1091N
716.016	4.0	1025505	STUDY_PAIR	n/a	wordpools/wordpool_EN.txt	STRAW	ROCK	5	1	ROCK	n/a	0	6	[0, 0, 0]	n/a	1	1	4600	ALF7	ALF8	3000.0	50	230	300	PAL2	1	R1091N
721.05	0.25	1030539	STUDY_ORIENT	n/a	n/a	JET	BAT	6	2	BAT	n/a	0	6	[0, 0, 0]	n/a	0	1	0	n/a	n/a	0.0	0	0	0	PAL2	1	R1091N
721.934	4.0	1031423	STUDY_PAIR	n/a	wordpools/wordpool_EN.txt	JET	BAT	6	2	BAT	n/a	0	6	[0, 0, 0]	n/a	0	1	0	n/a	n/a	0.0	0	0	0	PAL2	1	R1091N
725.951	1.0	1035440	START	n/a	n/a	n/a	n/a	-999	-999	n/a	n/a	-999	6	[-999, -999, -999]	n/a	0	1	0	n/a	n/a	0.0	0	0	0	PAL2	1	R1091N
726.951	0.017	1036440	MATH_START	n/a	n/a	n/a	n/a	-999	-999	n/a	n/a	-999	6	[0, 0, 0]	n/a	0	1	0	n/a	n/a	0.0	0	0	0	PAL2	1	R1091N
726.968	4.366	1036457	PROB	4.341	n/a	n/a	n/a	-999	-999	n/a	n/a	-999	6	[3, 6, 5]	14	0	1	0	n/a	n/a	0.0	0	0	0	PAL2	1	R1091N
731.334	2.668	1040822	PROB	2.647	n/a	n/a	n/a	-999	-999	n/a	n/a	-999	6	[2, 1, 1]	4	0	1	0	n/a	n/a	0.0	0	0	0	PAL2	1	R1091N
734.002	13.835	1043490	PROB	13.835	n/a	n/a	n/a	-999	-999	n/a	n/a	-999	6	[7, 1, 4]	15	0	1	0	n/a	n/a	0.0	0	0	0	PAL2	1	R1091N
747.837	0.018	1057325	STOP	n/a	n/a	n/a	n/a	-999	-999	n/a	n/a	-999	6	[-999, -999, -999]	n/a	0	1	0	n/a	n/a	0.0	0	0	0	PAL2	1	R1091N
747.855	0.0	1057343	TEST_START	n/a	n/a	n/a	n/a	-999	-999	n/a	n/a	-999	6	[0, 0, 0]	n/a	0	1	0	n/a	n/a	0.0	0	0	0	PAL2	1	R1091N
747.855	0.016	1057343	MATH_END	n/a	n/a	n/a	n/a	-999	-999	n/a	n/a	-999	6	[0, 0, 0]	n/a	0	1	0	n/a	n/a	0.0	0	0	0	PAL2	1	R1091N
747.871	0.25	1057359	TEST_ORIENT	n/a	n/a	STRAW	ROCK	5	1	ROCK	n/a	0	6	[0, 0, 0]	n/a	0	1	0	n/a	n/a	0.0	0	0	0	PAL2	1	R1091N
748.772	4.0	1058260	TEST_PROBE	n/a	wordpools/wordpool_EN.txt	STRAW	ROCK	5	1	ROCK	n/a	0	6	[0, 0, 0]	n/a	0	1	0	n/a	n/a	0.0	0	0	0	PAL2	1	R1091N
748.772	5.015	1058260	REC_START	n/a	n/a	n/a	n/a	5	-999	n/a	n/a	0	6	[0, 0, 0]	n/a	0	1	0	n/a	n/a	0.0	0	0	0	PAL2	1	R1091N
753.787	0.002	1063275	REC_EVENT	5.015	n/a	STRAW	ROCK	5	1	ROCK	<>	0	6	[0, 0, 0]	n/a	0	1	0	n/a	n/a	0.0	0	0	0	PAL2	1	R1091N
753.789	0.017	1063277	REC_END	n/a	n/a	n/a	n/a	5	-999	n/a	n/a	-999	6	[0, 0, 0]	n/a	0	1	0	n/a	n/a	0.0	0	0	0	PAL2	1	R1091N
753.806	0.25	1063294	TEST_ORIENT	n/a	n/a	JET	BAT	6	2	BAT	n/a	0	6	[0, 0, 0]	n/a	0	1	0	n/a	n/a	0.0	0	0	0	PAL2	1	R1091N
754.606	4.0	1064094	TEST_PROBE	n/a	wordpools/wordpool_EN.txt	JET	BAT	6	2	BAT	n/a	0	6	[0, 0, 0]	n/a	0	1	0	n/a	n/a	0.0	0	0	0	PAL2	1	R1091N
754.606	5.026	1064094	REC_START	n/a	n/a	n/a	n/a	6	-999	n/a	n/a	0	6	[0, 0, 0]	n/a	0	1	0	n/a	n/a	0.0	0	0	0	PAL2	1	R1091N
759.632	0.001	1069120	REC_END	n/a	n/a	n/a	n/a	6	-999	n/a	n/a	-999	6	[0, 0, 0]	n/a	0	1	0	n/a	n/a	0.0	0	0	0	PAL2	1	R1091N
759.633	0.007	1069121	REC_EVENT	5.027	n/a	JET	BAT	6	2	BAT	<>	0	6	[0, 0, 0]	n/a	0	1	0	n/a	n/a	0.0	0	0	0	PAL2	1	R1091N
759.64	0.25	1069128	TEST_ORIENT	n/a	n/a	MAZE	SCHOOL	3	3	MAZE	SCHOOL	1	6	[0, 0, 0]	n/a	0	1	0	n/a	n/a	0.0	0	0	0	PAL2	1	R1091N
760.657	4.0	1070144	TEST_PROBE	n/a	wordpools/wordpool_EN.txt	MAZE	SCHOOL	3	3	MAZE	SCHOOL	1	6	[0, 0, 0]	n/a	0	1	0	n/a	n/a	0.0	0	0	0	PAL2	1	R1091N
760.657	1.203	1070144	REC_START	n/a	n/a	n/a	n/a	3	-999	n/a	SCHOOL	1	6	[0, 0, 0]	n/a	0	1	0	n/a	n/a	0.0	0	0	0	PAL2	1	R1091N
761.86	3.822	1071347	REC_EVENT	1.203	n/a	MAZE	SCHOOL	3	3	MAZE	SCHOOL	1	6	[0, 0, 0]	n/a	0	1	0	n/a	n/a	0.0	0	0	0	PAL2	1	R1091N
765.682	0.009	1075169	REC_END	n/a	n/a	n/a	n/a	3	-999	n/a	n/a	-999	6	[0, 0, 0]	n/a	0	1	0	n/a	n/a	0.0	0	0	0	PAL2	1	R1091N
765.691	0.25	1075178	TEST_ORIENT	n/a	n/a	CRANE	WHALE	2	4	CRANE	n/a	0	6	[0, 0, 0]	n/a	0	1	0	n/a	n/a	0.0	0	0	0	PAL2	1	R1091N
766.658	0.0	1076145	REC_START	n/a	n/a	n/a	n/a	2	-999	n/a	n/a	0	6	[0, 0, 0]	n/a	0	1	0	n/a	n/a	0.0	0	0	0	PAL2	1	R1091N
766.658	4.0	1076145	TEST_PROBE	n/a	wordpools/wordpool_EN.txt	CRANE	WHALE	2	4	CRANE	n/a	0	6	[0, 0, 0]	n/a	0	1	0	n/a	n/a	0.0	0	0	0	PAL2	1	R1091N
771.673	0.002	1081160	REC_EVENT	5.015	n/a	CRANE	WHALE	2	4	CRANE	<>	0	6	[0, 0, 0]	n/a	0	1	0	n/a	n/a	0.0	0	0	0	PAL2	1	R1091N
771.675	0.017	1081162	REC_END	n/a	n/a	n/a	n/a	2	-999	n/a	n/a	-999	6	[0, 0, 0]	n/a	0	1	0	n/a	n/a	0.0	0	0	0	PAL2	1	R1091N
771.692	0.25	1081179	TEST_ORIENT	n/a	n/a	MULE	SALT	1	5	SALT	n/a	0	6	[0, 0, 0]	n/a	0	1	0	n/a	n/a	0.0	0	0	0	PAL2	1	R1091N
772.626	4.0	1082113	TEST_PROBE	n/a	wordpools/wordpool_EN.txt	MULE	SALT	1	5	SALT	n/a	0	6	[0, 0, 0]	n/a	0	1	0	n/a	n/a	0.0	0	0	0	PAL2	1	R1091N
772.626	2.826	1082113	REC_START	n/a	n/a	n/a	n/a	1	-999	n/a	n/a	0	6	[0, 0, 0]	n/a	0	1	0	n/a	n/a	0.0	0	0	0	PAL2	1	R1091N
775.452	2.191	1084939	REC_EVENT	2.826	n/a	MULE	SALT	1	5	SALT	<>	0	6	[0, 0, 0]	n/a	0	1	0	n/a	n/a	0.0	0	0	0	PAL2	1	R1091N
777.643	0.017	1087130	REC_END	n/a	n/a	n/a	n/a	1	-999	n/a	n/a	-999	6	[0, 0, 0]	n/a	0	1	0	n/a	n/a	0.0	0	0	0	PAL2	1	R1091N
777.66	0.25	1087147	TEST_ORIENT	n/a	n/a	PEACH	BATH	4	6	BATH	n/a	0	6	[0, 0, 0]	n/a	0	1	0	n/a	n/a	0.0	0	0	0	PAL2	1	R1091N
778.526	4.0	1088013	TEST_PROBE	n/a	wordpools/wordpool_EN.txt	PEACH	BATH	4	6	BATH	n/a	0	6	[0, 0, 0]	n/a	0	1	0	n/a	n/a	0.0	0	0	0	PAL2	1	R1091N
778.526	5.015	1088013	REC_START	n/a	n/a	n/a	n/a	4	-999	n/a	n/a	0	6	[0, 0, 0]	n/a	0	1	0	n/a	n/a	0.0	0	0	0	PAL2	1	R1091N
783.541	0.002	1093028	REC_EVENT	5.015	n/a	PEACH	BATH	4	6	BATH	<>	0	6	[0, 0, 0]	n/a	0	1	0	n/a	n/a	0.0	0	0	0	PAL2	1	R1091N
783.543	1.422	1093030	REC_END	n/a	n/a	n/a	n/a	4	-999	n/a	n/a	-999	6	[0, 0, 0]	n/a	0	1	0	n/a	n/a	0.0	0	0	0	PAL2	1	R1091N
784.965	10.447	1094452	ENCODING_START	n/a	n/a	n/a	n/a	0	-999	n/a	n/a	-999	7	[0, 0, 0]	n/a	0	1	0	n/a	n/a	0.0	0	0	0	PAL2	1	R1091N
795.412	0.25	1104898	STUDY_ORIENT	n/a	n/a	FOG	MOLE	1	3	MOLE	n/a	0	7	[0, 0, 0]	n/a	0	1	0	n/a	n/a	0.0	0	0	0	PAL2	1	R1091N
796.263	4.0	1105749	STUDY_PAIR	n/a	wordpools/wordpool_EN.txt	FOG	MOLE	1	3	MOLE	n/a	0	7	[0, 0, 0]	n/a	0	1	0	n/a	n/a	0.0	0	0	0	PAL2	1	R1091N
801.297	0.25	1110783	STUDY_ORIENT	n/a	n/a	DUCK	TOOTH	2	4	DUCK	n/a	0	7	[0, 0, 0]	n/a	0	1	0	n/a	n/a	0.0	0	0	0	PAL2	1	R1091N
801.919	4.6	1111405	STIM_ON	n/a	n/a	DUCK	TOOTH	2	4	DUCK	n/a	0	7	[0, 0, 0]	n/a	1	1	4600	ALF7	ALF8	3000.0	50	230	300	PAL2	1	R1091N
802.13	4.0	1111616	STUDY_PAIR	n/a	wordpools/wordpool_EN.txt	DUCK	TOOTH	2	4	DUCK	n/a	0	7	[0, 0, 0]	n/a	1	1	4600	ALF7	ALF8	3000.0	50	230	300	PAL2	1	R1091N
807.148	0.25	1116634	STUDY_ORIENT	n/a	n/a	DITCH	SKI	3	1	SKI	DITCH	1	7	[0, 0, 0]	n/a	0	1	0	n/a	n/a	0.0	0	0	0	PAL2	1	R1091N
807.948	4.0	1117434	STUDY_PAIR	n/a	wordpools/wordpool_EN.txt	DITCH	SKI	3	1	SKI	DITCH	1	7	[0, 0, 0]	n/a	0	1	0	n/a	n/a	0.0	0	0	0	PAL2	1	R1091N
812.966	0.25	1122452	STUDY_ORIENT	n/a	n/a	CLOWN	LAWN	4	6	CLOWN	n/a	0	7	[0, 0, 0]	n/a	0	1	0	n/a	n/a	0.0	0	0	0	PAL2	1	R1091N
813.538	4.6	1123024	STIM_ON	n/a	n/a	CLOWN	LAWN	4	6	CLOWN	n/a	0	7	[0, 0, 0]	n/a	1	1	4600	ALF7	ALF8	3000.0	50	230	300	PAL2	1	R1091N
813.749	4.0	1123235	STUDY_PAIR	n/a	wordpools/wordpool_EN.txt	CLOWN	LAWN	4	6	CLOWN	n/a	0	7	[0, 0, 0]	n/a	1	1	4600	ALF7	ALF8	3000.0	50	230	300	PAL2	1	R1091N
818.767	0.25	1128253	STUDY_ORIENT	n/a	n/a	HEART	SOCK	5	5	HEART	n/a	0	7	[0, 0, 0]	n/a	0	1	0	n/a	n/a	0.0	0	0	0	PAL2	1	R1091N
819.633	4.0	1129119	STUDY_PAIR	n/a	wordpools/wordpool_EN.txt	HEART	SOCK	5	5	HEART	n/a	0	7	[0, 0, 0]	n/a	0	1	0	n/a	n/a	0.0	0	0	0	PAL2	1	R1091N
824.651	0.25	1134136	STUDY_ORIENT	n/a	n/a	WORLD	KITE	6	2	WORLD	n/a	0	7	[0, 0, 0]	n/a	0	1	0	n/a	n/a	0.0	0	0	0	PAL2	1	R1091N
825.339	4.6	1134824	STIM_ON	n/a	n/a	WORLD	KITE	6	2	WORLD	n/a	0	7	[0, 0, 0]	n/a	1	1	4600	ALF7	ALF8	3000.0	50	230	300	PAL2	1	R1091N
825.55	4.0	1135035	STUDY_PAIR	n/a	wordpools/wordpool_EN.txt	WORLD	KITE	6	2	WORLD	n/a	0	7	[0, 0, 0]	n/a	1	1	4600	ALF7	ALF8	3000.0	50	230	300	PAL2	1	R1091N
829.551	1.0	1139036	START	n/a	n/a	n/a	n/a	-999	-999	n/a	n/a	-999	7	[-999, -999, -999]	n/a	0	1	0	n/a	n/a	0.0	0	0	0	PAL2	1	R1091N
830.551	0.018	1140036	MATH_START	n/a	n/a	n/a	n/a	-999	-999	n/a	n/a	-999	7	[0, 0, 0]	n/a	0	1	0	n/a	n/a	0.0	0	0	0	PAL2	1	R1091N
830.569	4.4	1140054	PROB	4.372	n/a	n/a	n/a	-999	-999	n/a	n/a	-999	7	[2, 3, 6]	11	0	1	0	n/a	n/a	0.0	0	0	0	PAL2	1	R1091N
834.969	15.948	1144454	PROB	15.948	n/a	n/a	n/a	-999	-999	n/a	n/a	-999	7	[7, 9, 8]	21	0	1	0	n/a	n/a	0.0	0	0	0	PAL2	1	R1091N
850.917	0.005	1160402	STOP	n/a	n/a	n/a	n/a	-999	-999	n/a	n/a	-999	7	[-999, -999, -999]	n/a	0	1	0	n/a	n/a	0.0	0	0	0	PAL2	1	R1091N
850.922	0.0	1160407	MATH_END	n/a	n/a	n/a	n/a	-999	-999	n/a	n/a	-999	7	[0, 0, 0]	n/a	0	1	0	n/a	n/a	0.0	0	0	0	PAL2	1	R1091N
850.922	0.017	1160407	TEST_START	n/a	n/a	n/a	n/a	-999	-999	n/a	n/a	-999	7	[0, 0, 0]	n/a	0	1	0	n/a	n/a	0.0	0	0	0	PAL2	1	R1091N
850.939	0.25	1160424	TEST_ORIENT	n/a	n/a	DITCH	SKI	3	1	SKI	DITCH	1	7	[0, 0, 0]	n/a	0	1	0	n/a	n/a	0.0	0	0	0	PAL2	1	R1091N
851.772	4.0	1161257	TEST_PROBE	n/a	wordpools/wordpool_EN.txt	DITCH	SKI	3	1	SKI	DITCH	1	7	[0, 0, 0]	n/a	0	1	0	n/a	n/a	0.0	0	0	0	PAL2	1	R1091N
851.773	2.431	1161258	REC_START	n/a	n/a	n/a	n/a	3	-999	n/a	DITCH	1	7	[0, 0, 0]	n/a	0	1	0	n/a	n/a	0.0	0	0	0	PAL2	1	R1091N
854.204	2.581	1163688	REC_EVENT	2.431	n/a	DITCH	SKI	3	1	SKI	DITCH	1	7	[0, 0, 0]	n/a	0	1	0	n/a	n/a	0.0	0	0	0	PAL2	1	R1091N
856.785	0.022	1166269	REC_END	n/a	n/a	n/a	n/a	3	-999	n/a	n/a	-999	7	[0, 0, 0]	n/a	0	1	0	n/a	n/a	0.0	0	0	0	PAL2	1	R1091N
856.807	0.25	1166291	TEST_ORIENT	n/a	n/a	WORLD	KITE	6	2	WORLD	n/a	0	7	[0, 0, 0]	n/a	0	1	0	n/a	n/a	0.0	0	0	0	PAL2	1	R1091N
857.807	0.0	1167291	REC_START	n/a	n/a	n/a	n/a	6	-999	n/a	n/a	0	7	[0, 0, 0]	n/a	0	1	0	n/a	n/a	0.0	0	0	0	PAL2	1	R1091N
857.807	4.0	1167291	TEST_PROBE	n/a	wordpools/wordpool_EN.txt	WORLD	KITE	6	2	WORLD	n/a	0	7	[0, 0, 0]	n/a	0	1	0	n/a	n/a	0.0	0	0	0	PAL2	1	R1091N
862.833	0.001	1172317	REC_END	n/a	n/a	n/a	n/a	6	-999	n/a	n/a	-999	7	[0, 0, 0]	n/a	0	1	0	n/a	n/a	0.0	0	0	0	PAL2	1	R1091N
862.834	0.007	1172318	REC_EVENT	5.027	n/a	WORLD	KITE	6	2	WORLD	<>	0	7	[0, 0, 0]	n/a	0	1	0	n/a	n/a	0.0	0	0	0	PAL2	1	R1091N
862.841	0.25	1172325	TEST_ORIENT	n/a	n/a	FOG	MOLE	1	3	MOLE	n/a	0	7	[0, 0, 0]	n/a	0	1	0	n/a	n/a	0.0	0	0	0	PAL2	1	R1091N
863.874	4.0	1173358	TEST_PROBE	n/a	wordpools/wordpool_EN.txt	FOG	MOLE	1	3	MOLE	n/a	0	7	[0, 0, 0]	n/a	0	1	0	n/a	n/a	0.0	0	0	0	PAL2	1	R1091N
863.875	5.009	1173359	REC_START	n/a	n/a	n/a	n/a	1	-999	n/a	n/a	0	7	[0, 0, 0]	n/a	0	1	0	n/a	n/a	0.0	0	0	0	PAL2	1	R1091N
868.884	0.0	1178368	REC_EVENT	5.009	n/a	FOG	MOLE	1	3	MOLE	<>	0	7	[0, 0, 0]	n/a	0	1	0	n/a	n/a	0.0	0	0	0	PAL2	1	R1091N
868.884	0.008	1178368	REC_END	n/a	n/a	n/a	n/a	1	-999	n/a	n/a	-999	7	[0, 0, 0]	n/a	0	1	0	n/a	n/a	0.0	0	0	0	PAL2	1	R1091N
868.892	0.25	1178376	TEST_ORIENT	n/a	n/a	DUCK	TOOTH	2	4	DUCK	n/a	0	7	[0, 0, 0]	n/a	0	1	0	n/a	n/a	0.0	0	0	0	PAL2	1	R1091N
869.892	0.0	1179376	REC_START	n/a	n/a	n/a	n/a	2	-999	n/a	n/a	0	7	[0, 0, 0]	n/a	0	1	0	n/a	n/a	0.0	0	0	0	PAL2	1	R1091N
869.892	4.0	1179376	TEST_PROBE	n/a	wordpools/wordpool_EN.txt	DUCK	TOOTH	2	4	DUCK	n/a	0	7	[0, 0, 0]	n/a	0	1	0	n/a	n/a	0.0	0	0	0	PAL2	1	R1091N
874.907	0.002	1184391	REC_EVENT	5.015	n/a	DUCK	TOOTH	2	4	DUCK	<>	0	7	[0, 0, 0]	n/a	0	1	0	n/a	n/a	0.0	0	0	0	PAL2	1	R1091N
874.909	0.017	1184393	REC_END	n/a	n/a	n/a	n/a	2	-999	n/a	n/a	-999	7	[0, 0, 0]	n/a	0	1	0	n/a	n/a	0.0	0	0	0	PAL2	1	R1091N
874.926	0.25	1184410	TEST_ORIENT	n/a	n/a	HEART	SOCK	5	5	HEART	n/a	0	7	[0, 0, 0]	n/a	0	1	0	n/a	n/a	0.0	0	0	0	PAL2	1	R1091N
875.943	4.0	1185427	TEST_PROBE	n/a	wordpools/wordpool_EN.txt	HEART	SOCK	5	5	HEART	n/a	0	7	[0, 0, 0]	n/a	0	1	0	n/a	n/a	0.0	0	0	0	PAL2	1	R1091N
875.943	5.015	1185427	REC_START	n/a	n/a	n/a	n/a	5	-999	n/a	n/a	0	7	[0, 0, 0]	n/a	0	1	0	n/a	n/a	0.0	0	0	0	PAL2	1	R1091N
880.958	0.002	1190442	REC_EVENT	5.015	n/a	HEART	SOCK	5	5	HEART	<>	0	7	[0, 0, 0]	n/a	0	1	0	n/a	n/a	0.0	0	0	0	PAL2	1	R1091N
880.96	0.017	1190444	REC_END	n/a	n/a	n/a	n/a	5	-999	n/a	n/a	-999	7	[0, 0, 0]	n/a	0	1	0	n/a	n/a	0.0	0	0	0	PAL2	1	R1091N
880.977	0.25	1190461	TEST_ORIENT	n/a	n/a	CLOWN	LAWN	4	6	CLOWN	n/a	0	7	[0, 0, 0]	n/a	0	1	0	n/a	n/a	0.0	0	0	0	PAL2	1	R1091N
881.827	4.0	1191311	TEST_PROBE	n/a	wordpools/wordpool_EN.txt	CLOWN	LAWN	4	6	CLOWN	n/a	0	7	[0, 0, 0]	n/a	0	1	0	n/a	n/a	0.0	0	0	0	PAL2	1	R1091N
881.828	2.14	1191312	REC_START	n/a	n/a	n/a	n/a	4	-999	n/a	n/a	0	7	[0, 0, 0]	n/a	0	1	0	n/a	n/a	0.0	0	0	0	PAL2	1	R1091N
883.968	2.869	1193452	REC_EVENT	2.14	n/a	CLOWN	LAWN	4	6	CLOWN	<>	0	7	[0, 0, 0]	n/a	0	1	0	n/a	n/a	0.0	0	0	0	PAL2	1	R1091N
886.837	1.856	1196320	REC_END	n/a	n/a	n/a	n/a	4	-999	n/a	n/a	-999	7	[0, 0, 0]	n/a	0	1	0	n/a	n/a	0.0	0	0	0	PAL2	1	R1091N
888.693	10.454	1198176	ENCODING_START	n/a	n/a	n/a	n/a	0	-999	n/a	n/a	-999	8	[0, 0, 0]	n/a	0	0	0	n/a	n/a	0.0	0	0	0	PAL2	1	R1091N
899.147	0.25	1208630	STUDY_ORIENT	n/a	n/a	BREAD	FOX	1	1	BREAD	n/a	0	8	[0, 0, 0]	n/a	0	0	0	n/a	n/a	0.0	0	0	0	PAL2	1	R1091N
900.097	4.0	1209580	STUDY_PAIR	n/a	wordpools/wordpool_EN.txt	BREAD	FOX	1	1	BREAD	n/a	0	8	[0, 0, 0]	n/a	0	0	0	n/a	n/a	0.0	0	0	0	PAL2	1	R1091N
905.131	0.25	1214614	STUDY_ORIENT	n/a	n/a	HOLE	CLOTH	2	4	HOLE	n/a	0	8	[0, 0, 0]	n/a	0	0	0	n/a	n/a	0.0	0	0	0	PAL2	1	R1091N
906.065	4.0	1215548	STUDY_PAIR	n/a	wordpools/wordpool_EN.txt	HOLE	CLOTH	2	4	HOLE	n/a	0	8	[0, 0, 0]	n/a	0	0	0	n/a	n/a	0.0	0	0	0	PAL2	1	R1091N
911.099	0.25	1220582	STUDY_ORIENT	n/a	n/a	BOWL	DEER	3	3	BOWL	n/a	0	8	[0, 0, 0]	n/a	0	0	0	n/a	n/a	0.0	0	0	0	PAL2	1	R1091N
912.049	4.0	1221532	STUDY_PAIR	n/a	wordpools/wordpool_EN.txt	BOWL	DEER	3	3	BOWL	n/a	0	8	[0, 0, 0]	n/a	0	0	0	n/a	n/a	0.0	0	0	0	PAL2	1	R1091N
917.083	0.25	1226565	STUDY_ORIENT	n/a	n/a	WALL	LAKE	4	6	WALL	n/a	0	8	[0, 0, 0]	n/a	0	0	0	n/a	n/a	0.0	0	0	0	PAL2	1	R1091N
917.917	4.0	1227399	STUDY_PAIR	n/a	wordpools/wordpool_EN.txt	WALL	LAKE	4	6	WALL	n/a	0	8	[0, 0, 0]	n/a	0	0	0	n/a	n/a	0.0	0	0	0	PAL2	1	R1091N
922.951	0.25	1232433	STUDY_ORIENT	n/a	n/a	CLAY	OAR	5	5	CLAY	n/a	0	8	[0, 0, 0]	n/a	0	0	0	n/a	n/a	0.0	0	0	0	PAL2	1	R1091N
923.935	4.0	1233417	STUDY_PAIR	n/a	wordpools/wordpool_EN.txt	CLAY	OAR	5	5	CLAY	n/a	0	8	[0, 0, 0]	n/a	0	0	0	n/a	n/a	0.0	0	0	0	PAL2	1	R1091N
928.969	0.25	1238451	STUDY_ORIENT	n/a	n/a	NEST	SEA	6	2	SEA	n/a	0	8	[0, 0, 0]	n/a	0	0	0	n/a	n/a	0.0	0	0	0	PAL2	1	R1091N
929.969	4.0	1239451	STUDY_PAIR	n/a	wordpools/wordpool_EN.txt	NEST	SEA	6	2	SEA	n/a	0	8	[0, 0, 0]	n/a	0	0	0	n/a	n/a	0.0	0	0	0	PAL2	1	R1091N
933.987	0.999	1243469	START	n/a	n/a	n/a	n/a	-999	-999	n/a	n/a	-999	8	[-999, -999, -999]	n/a	0	0	0	n/a	n/a	0.0	0	0	0	PAL2	1	R1091N
934.986	0.017	1244468	MATH_START	n/a	n/a	n/a	n/a	-999	-999	n/a	n/a	-999	8	[0, 0, 0]	n/a	0	0	0	n/a	n/a	0.0	0	0	0	PAL2	1	R1091N
935.003	5.834	1244485	PROB	5.81	n/a	n/a	n/a	-999	-999	n/a	n/a	-999	8	[6, 9, 6]	21	0	0	0	n/a	n/a	0.0	0	0	0	PAL2	1	R1091N
940.837	6.6	1250319	PROB	6.567	n/a	n/a	n/a	-999	-999	n/a	n/a	-999	8	[4, 5, 4]	13	0	0	0	n/a	n/a	0.0	0	0	0	PAL2	1	R1091N
947.437	11.512	1256918	PROB	11.512	n/a	n/a	n/a	-999	-999	n/a	n/a	-999	8	[9, 8, 6]	23	0	0	0	n/a	n/a	0.0	0	0	0	PAL2	1	R1091N
958.949	0.008	1268430	STOP	n/a	n/a	n/a	n/a	-999	-999	n/a	n/a	-999	8	[-999, -999, -999]	n/a	0	0	0	n/a	n/a	0.0	0	0	0	PAL2	1	R1091N
958.957	0.0	1268438	TEST_START	n/a	n/a	n/a	n/a	-999	-999	n/a	n/a	-999	8	[0, 0, 0]	n/a	0	0	0	n/a	n/a	0.0	0	0	0	PAL2	1	R1091N
958.957	0.017	1268438	MATH_END	n/a	n/a	n/a	n/a	-999	-999	n/a	n/a	-999	8	[0, 0, 0]	n/a	0	0	0	n/a	n/a	0.0	0	0	0	PAL2	1	R1091N
958.974	0.25	1268455	TEST_ORIENT	n/a	n/a	BREAD	FOX	1	1	BREAD	n/a	0	8	[0, 0, 0]	n/a	0	0	0	n/a	n/a	0.0	0	0	0	PAL2	1	R1091N
959.824	4.0	1269305	TEST_PROBE	n/a	wordpools/wordpool_EN.txt	BREAD	FOX	1	1	BREAD	n/a	0	8	[0, 0, 0]	n/a	0	0	0	n/a	n/a	0.0	0	0	0	PAL2	1	R1091N
959.824	5.015	1269305	REC_START	n/a	n/a	n/a	n/a	1	-999	n/a	n/a	0	8	[0, 0, 0]	n/a	0	0	0	n/a	n/a	0.0	0	0	0	PAL2	1	R1091N
964.839	0.002	1274320	REC_EVENT	5.015	n/a	BREAD	FOX	1	1	BREAD	<>	0	8	[0, 0, 0]	n/a	0	0	0	n/a	n/a	0.0	0	0	0	PAL2	1	R1091N
964.841	0.017	1274322	REC_END	n/a	n/a	n/a	n/a	1	-999	n/a	n/a	-999	8	[0, 0, 0]	n/a	0	0	0	n/a	n/a	0.0	0	0	0	PAL2	1	R1091N
964.858	0.25	1274339	TEST_ORIENT	n/a	n/a	NEST	SEA	6	2	SEA	n/a	0	8	[0, 0, 0]	n/a	0	0	0	n/a	n/a	0.0	0	0	0	PAL2	1	R1091N
965.792	0.0	1275273	REC_START	n/a	n/a	n/a	n/a	6	-999	n/a	n/a	0	8	[0, 0, 0]	n/a	0	0	0	n/a	n/a	0.0	0	0	0	PAL2	1	R1091N
965.792	4.0	1275273	TEST_PROBE	n/a	wordpools/wordpool_EN.txt	NEST	SEA	6	2	SEA	n/a	0	8	[0, 0, 0]	n/a	0	0	0	n/a	n/a	0.0	0	0	0	PAL2	1	R1091N
970.807	0.002	1280288	REC_EVENT	5.015	n/a	NEST	SEA	6	2	SEA	<>	0	8	[0, 0, 0]	n/a	0	0	0	n/a	n/a	0.0	0	0	0	PAL2	1	R1091N
970.809	0.017	1280290	REC_END	n/a	n/a	n/a	n/a	6	-999	n/a	n/a	-999	8	[0, 0, 0]	n/a	0	0	0	n/a	n/a	0.0	0	0	0	PAL2	1	R1091N
970.826	0.25	1280307	TEST_ORIENT	n/a	n/a	BOWL	DEER	3	3	BOWL	n/a	0	8	[0, 0, 0]	n/a	0	0	0	n/a	n/a	0.0	0	0	0	PAL2	1	R1091N
971.709	4.0	1281190	TEST_PROBE	n/a	wordpools/wordpool_EN.txt	BOWL	DEER	3	3	BOWL	n/a	0	8	[0, 0, 0]	n/a	0	0	0	n/a	n/a	0.0	0	0	0	PAL2	1	R1091N
971.71	4.998	1281191	REC_START	n/a	n/a	n/a	n/a	3	-999	n/a	n/a	0	8	[0, 0, 0]	n/a	0	0	0	n/a	n/a	0.0	0	0	0	PAL2	1	R1091N
976.708	0.002	1286189	REC_EVENT	4.998	n/a	BOWL	DEER	3	3	BOWL	<>	0	8	[0, 0, 0]	n/a	0	0	0	n/a	n/a	0.0	0	0	0	PAL2	1	R1091N
976.71	0.017	1286191	REC_END	n/a	n/a	n/a	n/a	3	-999	n/a	n/a	-999	8	[0, 0, 0]	n/a	0	0	0	n/a	n/a	0.0	0	0	0	PAL2	1	R1091N
976.727	0.25	1286208	TEST_ORIENT	n/a	n/a	HOLE	CLOTH	2	4	HOLE	n/a	0	8	[0, 0, 0]	n/a	0	0	0	n/a	n/a	0.0	0	0	0	PAL2	1	R1091N
977.66	4.0	1287140	TEST_PROBE	n/a	wordpools/wordpool_EN.txt	HOLE	CLOTH	2	4	HOLE	n/a	0	8	[0, 0, 0]	n/a	0	0	0	n/a	n/a	0.0	0	0	0	PAL2	1	R1091N
977.661	4.998	1287141	REC_START	n/a	n/a	n/a	n/a	2	-999	n/a	n/a	0	8	[0, 0, 0]	n/a	0	0	0	n/a	n/a	0.0	0	0	0	PAL2	1	R1091N
982.659	0.002	1292139	REC_EVENT	4.998	n/a	HOLE	CLOTH	2	4	HOLE	<>	0	8	[0, 0, 0]	n/a	0	0	0	n/a	n/a	0.0	0	0	0	PAL2	1	R1091N
982.661	0.017	1292141	REC_END	n/a	n/a	n/a	n/a	2	-999	n/a	n/a	-999	8	[0, 0, 0]	n/a	0	0	0	n/a	n/a	0.0	0	0	0	PAL2	1	R1091N
982.678	0.25	1292158	TEST_ORIENT	n/a	n/a	CLAY	OAR	5	5	CLAY	n/a	0	8	[0, 0, 0]	n/a	0	0	0	n/a	n/a	0.0	0	0	0	PAL2	1	R1091N
983.595	4.0	1293075	TEST_PROBE	n/a	wordpools/wordpool_EN.txt	CLAY	OAR	5	5	CLAY	n/a	0	8	[0, 0, 0]	n/a	0	0	0	n/a	n/a	0.0	0	0	0	PAL2	1	R1091N
983.595	2.206	1293075	REC_START	n/a	n/a	n/a	n/a	5	-999	n/a	n/a	0	8	[0, 0, 0]	n/a	0	0	0	n/a	n/a	0.0	0	0	0	PAL2	1	R1091N
985.801	1.486	1295281	REC_EVENT	2.206	n/a	CLAY	OAR	5	5	CLAY	<>	0	8	[0, 0, 0]	n/a	0	0	0	n/a	n/a	0.0	0	0	0	PAL2	1	R1091N
987.287	1.325	1296767	REC_EVENT	3.692	n/a	CLAY	OAR	5	5	CLAY	<>	0	8	[0, 0, 0]	n/a	0	0	0	n/a	n/a	0.0	0	0	0	PAL2	1	R1091N
988.612	0.017	1298092	REC_END	n/a	n/a	n/a	n/a	5	-999	n/a	n/a	-999	8	[0, 0, 0]	n/a	0	0	0	n/a	n/a	0.0	0	0	0	PAL2	1	R1091N
988.629	0.25	1298109	TEST_ORIENT	n/a	n/a	WALL	LAKE	4	6	WALL	n/a	0	8	[0, 0, 0]	n/a	0	0	0	n/a	n/a	0.0	0	0	0	PAL2	1	R1091N
989.428	0.0	1298908	REC_START	n/a	n/a	n/a	n/a	4	-999	n/a	n/a	0	8	[0, 0, 0]	n/a	0	0	0	n/a	n/a	0.0	0	0	0	PAL2	1	R1091N
989.428	4.0	1298908	TEST_PROBE	n/a	wordpools/wordpool_EN.txt	WALL	LAKE	4	6	WALL	n/a	0	8	[0, 0, 0]	n/a	0	0	0	n/a	n/a	0.0	0	0	0	PAL2	1	R1091N
994.443	0.002	1303923	REC_EVENT	5.015	n/a	WALL	LAKE	4	6	WALL	<>	0	8	[0, 0, 0]	n/a	0	0	0	n/a	n/a	0.0	0	0	0	PAL2	1	R1091N
994.445	2.16	1303925	REC_END	n/a	n/a	n/a	n/a	4	-999	n/a	n/a	-999	8	[0, 0, 0]	n/a	0	0	0	n/a	n/a	0.0	0	0	0	PAL2	1	R1091N
996.605	10.444	1306085	ENCODING_START	n/a	n/a	n/a	n/a	0	-999	n/a	n/a	-999	9	[0, 0, 0]	n/a	0	1	0	n/a	n/a	0.0	0	0	0	PAL2	1	R1091N
1007.049	0.25	1316529	STUDY_ORIENT	n/a	n/a	CORN	STICK	1	3	STICK	n/a	0	9	[0, 0, 0]	n/a	0	1	0	n/a	n/a	0.0	0	0	0	PAL2	1	R1091N
1008.032	4.0	1317512	STUDY_PAIR	n/a	wordpools/wordpool_EN.txt	CORN	STICK	1	3	STICK	n/a	0	9	[0, 0, 0]	n/a	0	1	0	n/a	n/a	0.0	0	0	0	PAL2	1	R1091N
1013.066	0.25	1322545	STUDY_ORIENT	n/a	n/a	HAT	NAIL	2	2	NAIL	n/a	0	9	[0, 0, 0]	n/a	0	1	0	n/a	n/a	0.0	0	0	0	PAL2	1	R1091N
1014.0	4.0	1323479	STUDY_PAIR	n/a	wordpools/wordpool_EN.txt	HAT	NAIL	2	2	NAIL	n/a	0	9	[0, 0, 0]	n/a	0	1	0	n/a	n/a	0.0	0	0	0	PAL2	1	R1091N
1019.034	0.25	1328513	STUDY_ORIENT	n/a	n/a	FLAME	SINK	3	1	FLAME	n/a	0	9	[0, 0, 0]	n/a	0	1	0	n/a	n/a	0.0	0	0	0	PAL2	1	R1091N
1019.984	4.0	1329463	STUDY_PAIR	n/a	wordpools/wordpool_EN.txt	FLAME	SINK	3	1	FLAME	n/a	0	9	[0, 0, 0]	n/a	0	1	0	n/a	n/a	0.0	0	0	0	PAL2	1	R1091N
1025.018	0.25	1334497	STUDY_ORIENT	n/a	n/a	YARD	TRUCK	4	4	YARD	n/a	0	9	[0, 0, 0]	n/a	0	1	0	n/a	n/a	0.0	0	0	0	PAL2	1	R1091N
1025.952	4.0	1335431	STUDY_PAIR	n/a	wordpools/wordpool_EN.txt	YARD	TRUCK	4	4	YARD	n/a	0	9	[0, 0, 0]	n/a	0	1	0	n/a	n/a	0.0	0	0	0	PAL2	1	R1091N
1030.986	0.25	1340465	STUDY_ORIENT	n/a	n/a	RIB	PIE	5	5	PIE	n/a	0	9	[0, 0, 0]	n/a	0	1	0	n/a	n/a	0.0	0	0	0	PAL2	1	R1091N
1031.803	4.0	1341282	STUDY_PAIR	n/a	wordpools/wordpool_EN.txt	RIB	PIE	5	5	PIE	n/a	0	9	[0, 0, 0]	n/a	0	1	0	n/a	n/a	0.0	0	0	0	PAL2	1	R1091N
1036.837	0.25	1346316	STUDY_ORIENT	n/a	n/a	CALF	TEETH	6	6	CALF	n/a	0	9	[0, 0, 0]	n/a	0	1	0	n/a	n/a	0.0	0	0	0	PAL2	1	R1091N
1037.62	4.0	1347099	STUDY_PAIR	n/a	wordpools/wordpool_EN.txt	CALF	TEETH	6	6	CALF	n/a	0	9	[0, 0, 0]	n/a	0	1	0	n/a	n/a	0.0	0	0	0	PAL2	1	R1091N
1041.621	1.0	1351099	START	n/a	n/a	n/a	n/a	-999	-999	n/a	n/a	-999	9	[-999, -999, -999]	n/a	0	1	0	n/a	n/a	0.0	0	0	0	PAL2	1	R1091N
1042.621	0.017	1352099	MATH_START	n/a	n/a	n/a	n/a	-999	-999	n/a	n/a	-999	9	[0, 0, 0]	n/a	0	1	0	n/a	n/a	0.0	0	0	0	PAL2	1	R1091N
1042.638	5.783	1352116	PROB	5.758	n/a	n/a	n/a	-999	-999	n/a	n/a	-999	9	[8, 8, 3]	19	0	1	0	n/a	n/a	0.0	0	0	0	PAL2	1	R1091N
1048.421	5.335	1357899	PROB	5.304	n/a	n/a	n/a	-999	-999	n/a	n/a	-999	9	[1, 3, 4]	8	0	1	0	n/a	n/a	0.0	0	0	0	PAL2	1	R1091N
1053.756	8.833	1363234	PROB	8.833	n/a	n/a	n/a	-999	-999	n/a	n/a	-999	9	[6, 4, 4]	14	0	1	0	n/a	n/a	0.0	0	0	0	PAL2	1	R1091N
1062.589	0.019	1372067	STOP	n/a	n/a	n/a	n/a	-999	-999	n/a	n/a	-999	9	[-999, -999, -999]	n/a	0	1	0	n/a	n/a	0.0	0	0	0	PAL2	1	R1091N
1062.608	0.0	1372086	TEST_START	n/a	n/a	n/a	n/a	-999	-999	n/a	n/a	-999	9	[0, 0, 0]	n/a	0	1	0	n/a	n/a	0.0	0	0	0	PAL2	1	R1091N
1062.608	0.017	1372086	MATH_END	n/a	n/a	n/a	n/a	-999	-999	n/a	n/a	-999	9	[0, 0, 0]	n/a	0	1	0	n/a	n/a	0.0	0	0	0	PAL2	1	R1091N
1062.625	0.25	1372103	TEST_ORIENT	n/a	n/a	FLAME	SINK	3	1	FLAME	n/a	0	9	[0, 0, 0]	n/a	0	1	0	n/a	n/a	0.0	0	0	0	PAL2	1	R1091N
1063.295	4.6	1372773	STIM_ON	n/a	n/a	FLAME	SINK	3	1	FLAME	n/a	0	9	[0, 0, 0]	n/a	1	1	4600	ALF7	ALF8	3000.0	50	230	300	PAL2	1	R1091N
1063.507	4.0	1372985	TEST_PROBE	n/a	wordpools/wordpool_EN.txt	FLAME	SINK	3	1	FLAME	n/a	0	9	[0, 0, 0]	n/a	1	1	4600	ALF7	ALF8	3000.0	50	230	300	PAL2	1	R1091N
1063.508	5.009	1372986	REC_START	n/a	n/a	n/a	n/a	3	-999	n/a	n/a	0	9	[0, 0, 0]	n/a	1	1	4600	ALF7	ALF8	3000.0	50	230	300	PAL2	1	R1091N
1068.517	0.007	1377995	REC_EVENT	5.009	n/a	FLAME	SINK	3	1	FLAME	<>	0	9	[0, 0, 0]	n/a	0	1	0	n/a	n/a	0.0	0	0	0	PAL2	1	R1091N
1068.524	0.017	1378002	REC_END	n/a	n/a	n/a	n/a	3	-999	n/a	n/a	-999	9	[0, 0, 0]	n/a	0	1	0	n/a	n/a	0.0	0	0	0	PAL2	1	R1091N
1068.541	0.25	1378019	TEST_ORIENT	n/a	n/a	HAT	NAIL	2	2	NAIL	n/a	0	9	[0, 0, 0]	n/a	0	1	0	n/a	n/a	0.0	0	0	0	PAL2	1	R1091N
1069.441	4.0	1378919	TEST_PROBE	n/a	wordpools/wordpool_EN.txt	HAT	NAIL	2	2	NAIL	n/a	0	9	[0, 0, 0]	n/a	0	1	0	n/a	n/a	0.0	0	0	0	PAL2	1	R1091N
1069.442	5.003	1378920	REC_START	n/a	n/a	n/a	n/a	2	-999	n/a	n/a	0	9	[0, 0, 0]	n/a	0	1	0	n/a	n/a	0.0	0	0	0	PAL2	1	R1091N
1074.445	0.005	1383922	REC_EVENT	5.003	n/a	HAT	NAIL	2	2	NAIL	<>	0	9	[0, 0, 0]	n/a	0	1	0	n/a	n/a	0.0	0	0	0	PAL2	1	R1091N
1074.45	0.009	1383927	REC_END	n/a	n/a	n/a	n/a	2	-999	n/a	n/a	-999	9	[0, 0, 0]	n/a	0	1	0	n/a	n/a	0.0	0	0	0	PAL2	1	R1091N
1074.459	0.25	1383936	TEST_ORIENT	n/a	n/a	CORN	STICK	1	3	STICK	n/a	0	9	[0, 0, 0]	n/a	0	1	0	n/a	n/a	0.0	0	0	0	PAL2	1	R1091N
1075.187	4.6	1384664	STIM_ON	n/a	n/a	CORN	STICK	1	3	STICK	n/a	0	9	[0, 0, 0]	n/a	1	1	4600	ALF7	ALF8	3000.0	50	230	300	PAL2	1	R1091N
1075.392	4.0	1384869	TEST_PROBE	n/a	wordpools/wordpool_EN.txt	CORN	STICK	1	3	STICK	n/a	0	9	[0, 0, 0]	n/a	1	1	4600	ALF7	ALF8	3000.0	50	230	300	PAL2	1	R1091N
1075.393	5.003	1384870	REC_START	n/a	n/a	n/a	n/a	1	-999	n/a	n/a	0	9	[0, 0, 0]	n/a	1	1	4600	ALF7	ALF8	3000.0	50	230	300	PAL2	1	R1091N
1080.396	0.004	1389873	REC_EVENT	5.003	n/a	CORN	STICK	1	3	STICK	<>	0	9	[0, 0, 0]	n/a	0	1	0	n/a	n/a	0.0	0	0	0	PAL2	1	R1091N
1080.4	0.01	1389877	REC_END	n/a	n/a	n/a	n/a	1	-999	n/a	n/a	-999	9	[0, 0, 0]	n/a	0	1	0	n/a	n/a	0.0	0	0	0	PAL2	1	R1091N
1080.41	0.25	1389887	TEST_ORIENT	n/a	n/a	YARD	TRUCK	4	4	YARD	n/a	0	9	[0, 0, 0]	n/a	0	1	0	n/a	n/a	0.0	0	0	0	PAL2	1	R1091N
1081.41	4.0	1390887	TEST_PROBE	n/a	wordpools/wordpool_EN.txt	YARD	TRUCK	4	4	YARD	n/a	0	9	[0, 0, 0]	n/a	0	1	0	n/a	n/a	0.0	0	0	0	PAL2	1	R1091N
1081.411	5.016	1390888	REC_START	n/a	n/a	n/a	n/a	4	-999	n/a	n/a	0	9	[0, 0, 0]	n/a	0	1	0	n/a	n/a	0.0	0	0	0	PAL2	1	R1091N
1086.427	0.005	1395904	REC_END	n/a	n/a	n/a	n/a	4	-999	n/a	n/a	-999	9	[0, 0, 0]	n/a	0	1	0	n/a	n/a	0.0	0	0	0	PAL2	1	R1091N
1086.432	0.012	1395909	REC_EVENT	5.021	n/a	YARD	TRUCK	4	4	YARD	<>	0	9	[0, 0, 0]	n/a	0	1	0	n/a	n/a	0.0	0	0	0	PAL2	1	R1091N
1086.444	0.25	1395921	TEST_ORIENT	n/a	n/a	RIB	PIE	5	5	PIE	n/a	0	9	[0, 0, 0]	n/a	0	1	0	n/a	n/a	0.0	0	0	0	PAL2	1	R1091N
1087.232	4.6	1396709	STIM_ON	n/a	n/a	RIB	PIE	5	5	PIE	n/a	0	9	[0, 0, 0]	n/a	1	1	4600	ALF7	ALF8	3000.0	50	230	300	PAL2	1	R1091N
1087.444	4.0	1396921	TEST_PROBE	n/a	wordpools/wordpool_EN.txt	RIB	PIE	5	5	PIE	n/a	0	9	[0, 0, 0]	n/a	1	1	4600	ALF7	ALF8	3000.0	50	230	300	PAL2	1	R1091N
1087.445	5.009	1396922	REC_START	n/a	n/a	n/a	n/a	5	-999	n/a	n/a	0	9	[0, 0, 0]	n/a	1	1	4600	ALF7	ALF8	3000.0	50	230	300	PAL2	1	R1091N
1092.454	0.002	1401931	REC_EVENT	5.009	n/a	RIB	PIE	5	5	PIE	<>	0	9	[0, 0, 0]	n/a	0	1	0	n/a	n/a	0.0	0	0	0	PAL2	1	R1091N
1092.456	0.006	1401933	REC_END	n/a	n/a	n/a	n/a	5	-999	n/a	n/a	-999	9	[0, 0, 0]	n/a	0	1	0	n/a	n/a	0.0	0	0	0	PAL2	1	R1091N
1092.462	0.25	1401939	TEST_ORIENT	n/a	n/a	CALF	TEETH	6	6	CALF	n/a	0	9	[0, 0, 0]	n/a	0	1	0	n/a	n/a	0.0	0	0	0	PAL2	1	R1091N
1093.462	4.0	1402939	TEST_PROBE	n/a	wordpools/wordpool_EN.txt	CALF	TEETH	6	6	CALF	n/a	0	9	[0, 0, 0]	n/a	0	1	0	n/a	n/a	0.0	0	0	0	PAL2	1	R1091N
1093.463	5.021	1402940	REC_START	n/a	n/a	n/a	n/a	6	-999	n/a	n/a	0	9	[0, 0, 0]	n/a	0	1	0	n/a	n/a	0.0	0	0	0	PAL2	1	R1091N
1098.484	0.004	1407961	REC_EVENT	5.021	n/a	CALF	TEETH	6	6	CALF	<>	0	9	[0, 0, 0]	n/a	0	1	0	n/a	n/a	0.0	0	0	0	PAL2	1	R1091N
1098.488	1.365	1407965	REC_END	n/a	n/a	n/a	n/a	6	-999	n/a	n/a	-999	9	[0, 0, 0]	n/a	0	1	0	n/a	n/a	0.0	0	0	0	PAL2	1	R1091N
1099.853	10.446	1409330	ENCODING_START	n/a	n/a	n/a	n/a	0	-999	n/a	n/a	-999	10	[0, 0, 0]	n/a	0	1	0	n/a	n/a	0.0	0	0	0	PAL2	1	R1091N
1110.299	0.25	1419775	STUDY_ORIENT	n/a	n/a	DOCK	FARM	1	1	FARM	n/a	0	10	[0, 0, 0]	n/a	0	1	0	n/a	n/a	0.0	0	0	0	PAL2	1	R1091N
1111.233	4.0	1420709	STUDY_PAIR	n/a	wordpools/wordpool_EN.txt	DOCK	FARM	1	1	FARM	n/a	0	10	[0, 0, 0]	n/a	0	1	0	n/a	n/a	0.0	0	0	0	PAL2	1	R1091N
1116.267	0.25	1425743	STUDY_ORIENT	n/a	n/a	SHIELD	BRICK	2	2	BRICK	n/a	0	10	[0, 0, 0]	n/a	0	1	0	n/a	n/a	0.0	0	0	0	PAL2	1	R1091N
1117.234	4.0	1426710	STUDY_PAIR	n/a	wordpools/wordpool_EN.txt	SHIELD	BRICK	2	2	BRICK	n/a	0	10	[0, 0, 0]	n/a	0	1	0	n/a	n/a	0.0	0	0	0	PAL2	1	R1091N
1122.268	0.25	1431744	STUDY_ORIENT	n/a	n/a	BOOK	FUR	3	3	BOOK	n/a	0	10	[0, 0, 0]	n/a	0	1	0	n/a	n/a	0.0	0	0	0	PAL2	1	R1091N
1123.101	4.0	1432577	STUDY_PAIR	n/a	wordpools/wordpool_EN.txt	BOOK	FUR	3	3	BOOK	n/a	0	10	[0, 0, 0]	n/a	0	1	0	n/a	n/a	0.0	0	0	0	PAL2	1	R1091N
1128.119	0.25	1437595	STUDY_ORIENT	n/a	n/a	LOCK	FLOOR	4	4	FLOOR	n/a	0	10	[0, 0, 0]	n/a	0	1	0	n/a	n/a	0.0	0	0	0	PAL2	1	R1091N
1129.119	4.0	1438595	STUDY_PAIR	n/a	wordpools/wordpool_EN.txt	LOCK	FLOOR	4	4	FLOOR	n/a	0	10	[0, 0, 0]	n/a	0	1	0	n/a	n/a	0.0	0	0	0	PAL2	1	R1091N
1134.137	0.25	1443612	STUDY_ORIENT	n/a	n/a	BALL	PIPE	5	5	PIPE	BOOK	0	10	[0, 0, 0]	n/a	0	1	0	n/a	n/a	0.0	0	0	0	PAL2	1	R1091N
1135.003	4.0	1444478	STUDY_PAIR	n/a	wordpools/wordpool_EN.txt	BALL	PIPE	5	5	PIPE	BOOK	0	10	[0, 0, 0]	n/a	0	1	0	n/a	n/a	0.0	0	0	0	PAL2	1	R1091N
1140.021	0.25	1449496	STUDY_ORIENT	n/a	n/a	HAWK	SEAL	6	6	HAWK	n/a	0	10	[0, 0, 0]	n/a	0	1	0	n/a	n/a	0.0	0	0	0	PAL2	1	R1091N
1141.005	4.0	1450480	STUDY_PAIR	n/a	wordpools/wordpool_EN.txt	HAWK	SEAL	6	6	HAWK	n/a	0	10	[0, 0, 0]	n/a	0	1	0	n/a	n/a	0.0	0	0	0	PAL2	1	R1091N
1145.022	1.0	1454497	START	n/a	n/a	n/a	n/a	-999	-999	n/a	n/a	-999	10	[-999, -999, -999]	n/a	0	1	0	n/a	n/a	0.0	0	0	0	PAL2	1	R1091N
1146.022	0.017	1455497	MATH_START	n/a	n/a	n/a	n/a	-999	-999	n/a	n/a	-999	10	[0, 0, 0]	n/a	0	1	0	n/a	n/a	0.0	0	0	0	PAL2	1	R1091N
1146.039	8.585	1455514	PROB	8.55	n/a	n/a	n/a	-999	-999	n/a	n/a	-999	10	[4, 6, 7]	17	0	1	0	n/a	n/a	0.0	0	0	0	PAL2	1	R1091N
1154.624	3.267	1464099	PROB	3.237	n/a	n/a	n/a	-999	-999	n/a	n/a	-999	10	[3, 6, 5]	14	0	1	0	n/a	n/a	0.0	0	0	0	PAL2	1	R1091N
1157.891	4.184	1467366	PROB	4.162	n/a	n/a	n/a	-999	-999	n/a	n/a	-999	10	[7, 9, 3]	19	0	1	0	n/a	n/a	0.0	0	0	0	PAL2	1	R1091N
1162.075	5.154	1471550	PROB	5.154	n/a	n/a	n/a	-999	-999	n/a	n/a	-999	10	[4, 1, 2]	7	0	1	0	n/a	n/a	0.0	0	0	0	PAL2	1	R1091N
1167.229	0.013	1476703	STOP	n/a	n/a	n/a	n/a	-999	-999	n/a	n/a	-999	10	[-999, -999, -999]	n/a	0	1	0	n/a	n/a	0.0	0	0	0	PAL2	1	R1091N
1167.242	0.0	1476716	TEST_START	n/a	n/a	n/a	n/a	-999	-999	n/a	n/a	-999	10	[0, 0, 0]	n/a	0	1	0	n/a	n/a	0.0	0	0	0	PAL2	1	R1091N
1167.242	0.017	1476716	MATH_END	n/a	n/a	n/a	n/a	-999	-999	n/a	n/a	-999	10	[0, 0, 0]	n/a	0	1	0	n/a	n/a	0.0	0	0	0	PAL2	1	R1091N
1167.259	0.25	1476733	TEST_ORIENT	n/a	n/a	DOCK	FARM	1	1	FARM	n/a	0	10	[0, 0, 0]	n/a	0	1	0	n/a	n/a	0.0	0	0	0	PAL2	1	R1091N
1167.96	4.6	1477434	STIM_ON	n/a	n/a	DOCK	FARM	1	1	FARM	n/a	0	10	[0, 0, 0]	n/a	1	1	4600	ALF7	ALF8	3000.0	50	230	300	PAL2	1	R1091N
1168.176	4.0	1477650	TEST_PROBE	n/a	wordpools/wordpool_EN.txt	DOCK	FARM	1	1	FARM	n/a	0	10	[0, 0, 0]	n/a	1	1	4600	ALF7	ALF8	3000.0	50	230	300	PAL2	1	R1091N
1168.176	5.015	1477650	REC_START	n/a	n/a	n/a	n/a	1	-999	n/a	n/a	0	10	[0, 0, 0]	n/a	1	1	4600	ALF7	ALF8	3000.0	50	230	300	PAL2	1	R1091N
1173.191	0.002	1482665	REC_EVENT	5.015	n/a	DOCK	FARM	1	1	FARM	<>	0	10	[0, 0, 0]	n/a	0	1	0	n/a	n/a	0.0	0	0	0	PAL2	1	R1091N
1173.193	0.017	1482667	REC_END	n/a	n/a	n/a	n/a	1	-999	n/a	n/a	-999	10	[0, 0, 0]	n/a	0	1	0	n/a	n/a	0.0	0	0	0	PAL2	1	R1091N
1173.21	0.25	1482684	TEST_ORIENT	n/a	n/a	SHIELD	BRICK	2	2	BRICK	n/a	0	10	[0, 0, 0]	n/a	0	1	0	n/a	n/a	0.0	0	0	0	PAL2	1	R1091N
1174.193	4.0	1483667	TEST_PROBE	n/a	wordpools/wordpool_EN.txt	SHIELD	BRICK	2	2	BRICK	n/a	0	10	[0, 0, 0]	n/a	0	1	0	n/a	n/a	0.0	0	0	0	PAL2	1	R1091N
1174.194	5.003	1483668	REC_START	n/a	n/a	n/a	n/a	2	-999	n/a	n/a	0	10	[0, 0, 0]	n/a	0	1	0	n/a	n/a	0.0	0	0	0	PAL2	1	R1091N
1179.197	0.005	1488671	REC_EVENT	5.003	n/a	SHIELD	BRICK	2	2	BRICK	<>	0	10	[0, 0, 0]	n/a	0	1	0	n/a	n/a	0.0	0	0	0	PAL2	1	R1091N
1179.202	0.009	1488676	REC_END	n/a	n/a	n/a	n/a	2	-999	n/a	n/a	-999	10	[0, 0, 0]	n/a	0	1	0	n/a	n/a	0.0	0	0	0	PAL2	1	R1091N
1179.211	0.25	1488685	TEST_ORIENT	n/a	n/a	BOOK	FUR	3	3	BOOK	n/a	0	10	[0, 0, 0]	n/a	0	1	0	n/a	n/a	0.0	0	0	0	PAL2	1	R1091N
1179.814	4.6	1489288	STIM_ON	n/a	n/a	BOOK	FUR	3	3	BOOK	n/a	0	10	[0, 0, 0]	n/a	1	1	4600	ALF7	ALF8	3000.0	50	230	300	PAL2	1	R1091N
1180.028	4.0	1489502	TEST_PROBE	n/a	wordpools/wordpool_EN.txt	BOOK	FUR	3	3	BOOK	n/a	0	10	[0, 0, 0]	n/a	1	1	4600	ALF7	ALF8	3000.0	50	230	300	PAL2	1	R1091N
1180.028	5.015	1489502	REC_START	n/a	n/a	n/a	n/a	3	-999	n/a	n/a	0	10	[0, 0, 0]	n/a	1	1	4600	ALF7	ALF8	3000.0	50	230	300	PAL2	1	R1091N
1185.043	0.002	1494517	REC_EVENT	5.015	n/a	BOOK	FUR	3	3	BOOK	<>	0	10	[0, 0, 0]	n/a	0	1	0	n/a	n/a	0.0	0	0	0	PAL2	1	R1091N
1185.045	0.017	1494519	REC_END	n/a	n/a	n/a	n/a	3	-999	n/a	n/a	-999	10	[0, 0, 0]	n/a	0	1	0	n/a	n/a	0.0	0	0	0	PAL2	1	R1091N
1185.062	0.25	1494536	TEST_ORIENT	n/a	n/a	LOCK	FLOOR	4	4	FLOOR	n/a	0	10	[0, 0, 0]	n/a	0	1	0	n/a	n/a	0.0	0	0	0	PAL2	1	R1091N
1185.929	0.0	1495403	REC_START	n/a	n/a	n/a	n/a	4	-999	n/a	n/a	0	10	[0, 0, 0]	n/a	0	1	0	n/a	n/a	0.0	0	0	0	PAL2	1	R1091N
1185.929	4.0	1495403	TEST_PROBE	n/a	wordpools/wordpool_EN.txt	LOCK	FLOOR	4	4	FLOOR	n/a	0	10	[0, 0, 0]	n/a	0	1	0	n/a	n/a	0.0	0	0	0	PAL2	1	R1091N
1187.335	3.611	1496809	REC_EVENT	1.406	n/a	LOCK	FLOOR	4	4	FLOOR	<>	0	10	[0, 0, 0]	n/a	0	1	0	n/a	n/a	0.0	0	0	0	PAL2	1	R1091N
1190.946	0.017	1500420	REC_END	n/a	n/a	n/a	n/a	4	-999	n/a	n/a	-999	10	[0, 0, 0]	n/a	0	1	0	n/a	n/a	0.0	0	0	0	PAL2	1	R1091N
1190.963	0.25	1500437	TEST_ORIENT	n/a	n/a	BALL	PIPE	5	5	PIPE	BOOK	0	10	[0, 0, 0]	n/a	0	1	0	n/a	n/a	0.0	0	0	0	PAL2	1	R1091N
1191.672	4.6	1501146	STIM_ON	n/a	n/a	BALL	PIPE	5	5	PIPE	BOOK	0	10	[0, 0, 0]	n/a	1	1	4600	ALF7	ALF8	3000.0	50	230	300	PAL2	1	R1091N
1191.88	4.0	1501354	TEST_PROBE	n/a	wordpools/wordpool_EN.txt	BALL	PIPE	5	5	PIPE	BOOK	0	10	[0, 0, 0]	n/a	1	1	4600	ALF7	ALF8	3000.0	50	230	300	PAL2	1	R1091N
1191.88	2.554	1501354	REC_START	n/a	n/a	n/a	n/a	5	-999	n/a	BOOK	0	10	[0, 0, 0]	n/a	1	1	4600	ALF7	ALF8	3000.0	50	230	300	PAL2	1	R1091N
1194.434	2.463	1503908	REC_EVENT	2.554	n/a	BALL	PIPE	5	5	PIPE	BOOK	0	10	[0, 0, 0]	n/a	1	1	4600	ALF7	ALF8	3000.0	50	230	300	PAL2	1	R1091N
1196.897	0.017	1506370	REC_END	n/a	n/a	n/a	n/a	5	-999	n/a	n/a	-999	10	[0, 0, 0]	n/a	0	1	0	n/a	n/a	0.0	0	0	0	PAL2	1	R1091N
1196.914	0.25	1506387	TEST_ORIENT	n/a	n/a	HAWK	SEAL	6	6	HAWK	n/a	0	10	[0, 0, 0]	n/a	0	1	0	n/a	n/a	0.0	0	0	0	PAL2	1	R1091N
1197.881	4.0	1507354	TEST_PROBE	n/a	wordpools/wordpool_EN.txt	HAWK	SEAL	6	6	HAWK	n/a	0	10	[0, 0, 0]	n/a	0	1	0	n/a	n/a	0.0	0	0	0	PAL2	1	R1091N
1197.881	2.063	1507354	REC_START	n/a	n/a	n/a	n/a	6	-999	n/a	n/a	0	10	[0, 0, 0]	n/a	0	1	0	n/a	n/a	0.0	0	0	0	PAL2	1	R1091N
1199.944	2.954	1509417	REC_EVENT	2.063	n/a	HAWK	SEAL	6	6	HAWK	<>	0	10	[0, 0, 0]	n/a	0	1	0	n/a	n/a	0.0	0	0	0	PAL2	1	R1091N
1202.898	1.243	1512371	REC_END	n/a	n/a	n/a	n/a	6	-999	n/a	n/a	-999	10	[0, 0, 0]	n/a	0	1	0	n/a	n/a	0.0	0	0	0	PAL2	1	R1091N
1204.141	10.443	1513614	ENCODING_START	n/a	n/a	n/a	n/a	0	-999	n/a	n/a	-999	11	[0, 0, 0]	n/a	0	1	0	n/a	n/a	0.0	0	0	0	PAL2	1	R1091N
1214.584	0.25	1524057	STUDY_ORIENT	n/a	n/a	SPRING	MOTH	1	1	MOTH	n/a	0	11	[0, 0, 0]	n/a	0	1	0	n/a	n/a	0.0	0	0	0	PAL2	1	R1091N
1215.399	4.0	1524872	STUDY_PAIR	n/a	wordpools/wordpool_EN.txt	SPRING	MOTH	1	1	MOTH	n/a	0	11	[0, 0, 0]	n/a	0	1	0	n/a	n/a	0.0	0	0	0	PAL2	1	R1091N
1220.417	0.25	1529890	STUDY_ORIENT	n/a	n/a	ROOF	PASTE	2	2	ROOF	n/a	0	11	[0, 0, 0]	n/a	0	1	0	n/a	n/a	0.0	0	0	0	PAL2	1	R1091N
1221.4	4.0	1530873	STUDY_PAIR	n/a	wordpools/wordpool_EN.txt	ROOF	PASTE	2	2	ROOF	n/a	0	11	[0, 0, 0]	n/a	0	1	0	n/a	n/a	0.0	0	0	0	PAL2	1	R1091N
1226.418	0.25	1535890	STUDY_ORIENT	n/a	n/a	JEEP	GATE	3	3	GATE	n/a	0	11	[0, 0, 0]	n/a	0	1	0	n/a	n/a	0.0	0	0	0	PAL2	1	R1091N
1227.368	4.0	1536840	STUDY_PAIR	n/a	wordpools/wordpool_EN.txt	JEEP	GATE	3	3	GATE	n/a	0	11	[0, 0, 0]	n/a	0	1	0	n/a	n/a	0.0	0	0	0	PAL2	1	R1091N
1232.402	0.25	1541874	STUDY_ORIENT	n/a	n/a	SWORD	RAKE	4	6	RAKE	n/a	0	11	[0, 0, 0]	n/a	0	1	0	n/a	n/a	0.0	0	0	0	PAL2	1	R1091N
1233.187	4.0	1542659	STUDY_PAIR	n/a	wordpools/wordpool_EN.txt	SWORD	RAKE	4	6	RAKE	n/a	0	11	[0, 0, 0]	n/a	0	1	0	n/a	n/a	0.0	0	0	0	PAL2	1	R1091N
1238.221	0.25	1547693	STUDY_ORIENT	n/a	n/a	PEN	ROOM	5	5	ROOM	n/a	0	11	[0, 0, 0]	n/a	0	1	0	n/a	n/a	0.0	0	0	0	PAL2	1	R1091N
1239.188	4.0	1548660	STUDY_PAIR	n/a	wordpools/wordpool_EN.txt	PEN	ROOM	5	5	ROOM	n/a	0	11	[0, 0, 0]	n/a	0	1	0	n/a	n/a	0.0	0	0	0	PAL2	1	R1091N
1244.222	0.25	1553694	STUDY_ORIENT	n/a	n/a	LAND	TAIL	6	4	TAIL	LAND	1	11	[0, 0, 0]	n/a	0	1	0	n/a	n/a	0.0	0	0	0	PAL2	1	R1091N
1245.072	4.0	1554544	STUDY_PAIR	n/a	wordpools/wordpool_EN.txt	LAND	TAIL	6	4	TAIL	LAND	1	11	[0, 0, 0]	n/a	0	1	0	n/a	n/a	0.0	0	0	0	PAL2	1	R1091N
1249.09	0.999	1558562	START	n/a	n/a	n/a	n/a	-999	-999	n/a	n/a	-999	11	[-999, -999, -999]	n/a	0	1	0	n/a	n/a	0.0	0	0	0	PAL2	1	R1091N
1250.089	0.017	1559561	MATH_START	n/a	n/a	n/a	n/a	-999	-999	n/a	n/a	-999	11	[0, 0, 0]	n/a	0	1	0	n/a	n/a	0.0	0	0	0	PAL2	1	R1091N
1250.106	6.518	1559578	PROB	6.491	n/a	n/a	n/a	-999	-999	n/a	n/a	-999	11	[5, 1, 2]	8	0	1	0	n/a	n/a	0.0	0	0	0	PAL2	1	R1091N
1256.624	11.085	1566096	PROB	11.061	n/a	n/a	n/a	-999	-999	n/a	n/a	-999	11	[9, 7, 4]	20	0	1	0	n/a	n/a	0.0	0	0	0	PAL2	1	R1091N
1267.709	4.576	1577180	PROB	4.576	n/a	n/a	n/a	-999	-999	n/a	n/a	-999	11	[3, 4, 2]	9	0	1	0	n/a	n/a	0.0	0	0	0	PAL2	1	R1091N
1272.285	0.008	1581756	STOP	n/a	n/a	n/a	n/a	-999	-999	n/a	n/a	-999	11	[-999, -999, -999]	n/a	0	1	0	n/a	n/a	0.0	0	0	0	PAL2	1	R1091N
1272.293	0.0	1581764	MATH_END	n/a	n/a	n/a	n/a	-999	-999	n/a	n/a	-999	11	[0, 0, 0]	n/a	0	1	0	n/a	n/a	0.0	0	0	0	PAL2	1	R1091N
1272.293	0.017	1581764	TEST_START	n/a	n/a	n/a	n/a	-999	-999	n/a	n/a	-999	11	[0, 0, 0]	n/a	0	1	0	n/a	n/a	0.0	0	0	0	PAL2	1	R1091N
1272.31	0.25	1581781	TEST_ORIENT	n/a	n/a	SPRING	MOTH	1	1	MOTH	n/a	0	11	[0, 0, 0]	n/a	0	1	0	n/a	n/a	0.0	0	0	0	PAL2	1	R1091N
1273.244	4.0	1582715	TEST_PROBE	n/a	wordpools/wordpool_EN.txt	SPRING	MOTH	1	1	MOTH	n/a	0	11	[0, 0, 0]	n/a	0	1	0	n/a	n/a	0.0	0	0	0	PAL2	1	R1091N
1273.244	5.015	1582715	REC_START	n/a	n/a	n/a	n/a	1	-999	n/a	n/a	0	11	[0, 0, 0]	n/a	0	1	0	n/a	n/a	0.0	0	0	0	PAL2	1	R1091N
1278.259	0.002	1587730	REC_EVENT	5.015	n/a	SPRING	MOTH	1	1	MOTH	<>	0	11	[0, 0, 0]	n/a	0	1	0	n/a	n/a	0.0	0	0	0	PAL2	1	R1091N
1278.261	0.017	1587732	REC_END	n/a	n/a	n/a	n/a	1	-999	n/a	n/a	-999	11	[0, 0, 0]	n/a	0	1	0	n/a	n/a	0.0	0	0	0	PAL2	1	R1091N
1278.278	0.25	1587749	TEST_ORIENT	n/a	n/a	ROOF	PASTE	2	2	ROOF	n/a	0	11	[0, 0, 0]	n/a	0	1	0	n/a	n/a	0.0	0	0	0	PAL2	1	R1091N
1278.883	4.6	1588354	STIM_ON	n/a	n/a	ROOF	PASTE	2	2	ROOF	n/a	0	11	[0, 0, 0]	n/a	1	1	4600	ALF7	ALF8	3000.0	50	230	300	PAL2	1	R1091N
1279.094	4.0	1588565	TEST_PROBE	n/a	wordpools/wordpool_EN.txt	ROOF	PASTE	2	2	ROOF	n/a	0	11	[0, 0, 0]	n/a	1	1	4600	ALF7	ALF8	3000.0	50	230	300	PAL2	1	R1091N
1279.095	5.007	1588566	REC_START	n/a	n/a	n/a	n/a	2	-999	n/a	n/a	0	11	[0, 0, 0]	n/a	1	1	4600	ALF7	ALF8	3000.0	50	230	300	PAL2	1	R1091N
1284.102	0.002	1593573	REC_END	n/a	n/a	n/a	n/a	2	-999	n/a	n/a	-999	11	[0, 0, 0]	n/a	0	1	0	n/a	n/a	0.0	0	0	0	PAL2	1	R1091N
1284.104	0.008	1593575	REC_EVENT	5.009	n/a	ROOF	PASTE	2	2	ROOF	<>	0	11	[0, 0, 0]	n/a	0	1	0	n/a	n/a	0.0	0	0	0	PAL2	1	R1091N
1284.112	0.25	1593583	TEST_ORIENT	n/a	n/a	JEEP	GATE	3	3	GATE	n/a	0	11	[0, 0, 0]	n/a	0	1	0	n/a	n/a	0.0	0	0	0	PAL2	1	R1091N
1284.995	4.0	1594466	TEST_PROBE	n/a	wordpools/wordpool_EN.txt	JEEP	GATE	3	3	GATE	n/a	0	11	[0, 0, 0]	n/a	0	1	0	n/a	n/a	0.0	0	0	0	PAL2	1	R1091N
1284.996	5.007	1594467	REC_START	n/a	n/a	n/a	n/a	3	-999	n/a	n/a	0	11	[0, 0, 0]	n/a	0	1	0	n/a	n/a	0.0	0	0	0	PAL2	1	R1091N
1290.003	0.002	1599473	REC_END	n/a	n/a	n/a	n/a	3	-999	n/a	n/a	-999	11	[0, 0, 0]	n/a	0	1	0	n/a	n/a	0.0	0	0	0	PAL2	1	R1091N
1290.005	0.008	1599475	REC_EVENT	5.009	n/a	JEEP	GATE	3	3	GATE	<>	0	11	[0, 0, 0]	n/a	0	1	0	n/a	n/a	0.0	0	0	0	PAL2	1	R1091N
1290.013	0.25	1599483	TEST_ORIENT	n/a	n/a	LAND	TAIL	6	4	TAIL	LAND	1	11	[0, 0, 0]	n/a	0	1	0	n/a	n/a	0.0	0	0	0	PAL2	1	R1091N
1290.813	4.6	1600283	STIM_ON	n/a	n/a	LAND	TAIL	6	4	TAIL	LAND	1	11	[0, 0, 0]	n/a	1	1	4600	ALF7	ALF8	3000.0	50	230	300	PAL2	1	R1091N
1291.03	4.0	1600500	TEST_PROBE	n/a	wordpools/wordpool_EN.txt	LAND	TAIL	6	4	TAIL	LAND	1	11	[0, 0, 0]	n/a	1	1	4600	ALF7	ALF8	3000.0	50	230	300	PAL2	1	R1091N
1291.03	1.83	1600500	REC_START	n/a	n/a	n/a	n/a	6	-999	n/a	LAND	1	11	[0, 0, 0]	n/a	1	1	4600	ALF7	ALF8	3000.0	50	230	300	PAL2	1	R1091N
1292.86	3.187	1602330	REC_EVENT	1.83	n/a	LAND	TAIL	6	4	TAIL	LAND	1	11	[0, 0, 0]	n/a	1	1	4600	ALF7	ALF8	3000.0	50	230	300	PAL2	1	R1091N
1296.047	0.017	1605517	REC_END	n/a	n/a	n/a	n/a	6	-999	n/a	n/a	-999	11	[0, 0, 0]	n/a	0	1	0	n/a	n/a	0.0	0	0	0	PAL2	1	R1091N
1296.064	0.25	1605534	TEST_ORIENT	n/a	n/a	PEN	ROOM	5	5	ROOM	n/a	0	11	[0, 0, 0]	n/a	0	1	0	n/a	n/a	0.0	0	0	0	PAL2	1	R1091N
1296.864	4.0	1606334	TEST_PROBE	n/a	wordpools/wordpool_EN.txt	PEN	ROOM	5	5	ROOM	n/a	0	11	[0, 0, 0]	n/a	0	1	0	n/a	n/a	0.0	0	0	0	PAL2	1	R1091N
1296.864	5.015	1606334	REC_START	n/a	n/a	n/a	n/a	5	-999	n/a	n/a	0	11	[0, 0, 0]	n/a	0	1	0	n/a	n/a	0.0	0	0	0	PAL2	1	R1091N
1301.879	0.003	1611349	REC_EVENT	5.015	n/a	PEN	ROOM	5	5	ROOM	<>	0	11	[0, 0, 0]	n/a	0	1	0	n/a	n/a	0.0	0	0	0	PAL2	1	R1091N
1301.882	0.016	1611352	REC_END	n/a	n/a	n/a	n/a	5	-999	n/a	n/a	-999	11	[0, 0, 0]	n/a	0	1	0	n/a	n/a	0.0	0	0	0	PAL2	1	R1091N
1301.898	0.25	1611368	TEST_ORIENT	n/a	n/a	SWORD	RAKE	4	6	RAKE	n/a	0	11	[0, 0, 0]	n/a	0	1	0	n/a	n/a	0.0	0	0	0	PAL2	1	R1091N
1302.585	4.6	1612055	STIM_ON	n/a	n/a	SWORD	RAKE	4	6	RAKE	n/a	0	11	[0, 0, 0]	n/a	1	1	4600	ALF7	ALF8	3000.0	50	230	300	PAL2	1	R1091N
1302.799	4.0	1612269	TEST_PROBE	n/a	wordpools/wordpool_EN.txt	SWORD	RAKE	4	6	RAKE	n/a	0	11	[0, 0, 0]	n/a	1	1	4600	ALF7	ALF8	3000.0	50	230	300	PAL2	1	R1091N
1302.799	5.015	1612269	REC_START	n/a	n/a	n/a	n/a	4	-999	n/a	n/a	0	11	[0, 0, 0]	n/a	1	1	4600	ALF7	ALF8	3000.0	50	230	300	PAL2	1	R1091N
1307.814	0.002	1617284	REC_EVENT	5.015	n/a	SWORD	RAKE	4	6	RAKE	<>	0	11	[0, 0, 0]	n/a	0	1	0	n/a	n/a	0.0	0	0	0	PAL2	1	R1091N
1307.816	2.604	1617286	REC_END	n/a	n/a	n/a	n/a	4	-999	n/a	n/a	-999	11	[0, 0, 0]	n/a	0	1	0	n/a	n/a	0.0	0	0	0	PAL2	1	R1091N
1310.42	10.448	1619890	ENCODING_START	n/a	n/a	n/a	n/a	0	-999	n/a	n/a	-999	12	[0, 0, 0]	n/a	0	1	0	n/a	n/a	0.0	0	0	0	PAL2	1	R1091N
1320.868	0.25	1630337	STUDY_ORIENT	n/a	n/a	AXE	APE	1	5	AXE	APE	1	12	[0, 0, 0]	n/a	0	1	0	n/a	n/a	0.0	0	0	0	PAL2	1	R1091N
1321.851	4.0	1631320	STUDY_PAIR	n/a	wordpools/wordpool_EN.txt	AXE	APE	1	5	AXE	APE	1	12	[0, 0, 0]	n/a	0	1	0	n/a	n/a	0.0	0	0	0	PAL2	1	R1091N
1326.869	0.25	1636338	STUDY_ORIENT	n/a	n/a	MOOSE	BANK	2	4	MOOSE	n/a	0	12	[0, 0, 0]	n/a	0	1	0	n/a	n/a	0.0	0	0	0	PAL2	1	R1091N
1327.786	4.0	1637255	STUDY_PAIR	n/a	wordpools/wordpool_EN.txt	MOOSE	BANK	2	4	MOOSE	n/a	0	12	[0, 0, 0]	n/a	0	1	0	n/a	n/a	0.0	0	0	0	PAL2	1	R1091N
1332.82	0.25	1642289	STUDY_ORIENT	n/a	n/a	OAK	TOOL	3	3	OAK	TOOL	1	12	[0, 0, 0]	n/a	0	1	0	n/a	n/a	0.0	0	0	0	PAL2	1	R1091N
1333.687	4.0	1643156	STUDY_PAIR	n/a	wordpools/wordpool_EN.txt	OAK	TOOL	3	3	OAK	TOOL	1	12	[0, 0, 0]	n/a	0	1	0	n/a	n/a	0.0	0	0	0	PAL2	1	R1091N
1338.721	0.25	1648190	STUDY_ORIENT	n/a	n/a	JUICE	WORM	4	2	JUICE	n/a	0	12	[0, 0, 0]	n/a	0	1	0	n/a	n/a	0.0	0	0	0	PAL2	1	R1091N
1339.605	4.0	1649074	STUDY_PAIR	n/a	wordpools/wordpool_EN.txt	JUICE	WORM	4	2	JUICE	n/a	0	12	[0, 0, 0]	n/a	0	1	0	n/a	n/a	0.0	0	0	0	PAL2	1	R1091N
1344.639	0.25	1654108	STUDY_ORIENT	n/a	n/a	CROWN	STORM	5	1	CROWN	n/a	0	12	[0, 0, 0]	n/a	0	1	0	n/a	n/a	0.0	0	0	0	PAL2	1	R1091N
1345.538	4.0	1655007	STUDY_PAIR	n/a	wordpools/wordpool_EN.txt	CROWN	STORM	5	1	CROWN	n/a	0	12	[0, 0, 0]	n/a	0	1	0	n/a	n/a	0.0	0	0	0	PAL2	1	R1091N
1350.573	0.25	1660041	STUDY_ORIENT	n/a	n/a	BEAN	VAN	6	6	VAN	n/a	0	12	[0, 0, 0]	n/a	0	1	0	n/a	n/a	0.0	0	0	0	PAL2	1	R1091N
1351.422	4.0	1660890	STUDY_PAIR	n/a	wordpools/wordpool_EN.txt	BEAN	VAN	6	6	VAN	n/a	0	12	[0, 0, 0]	n/a	0	1	0	n/a	n/a	0.0	0	0	0	PAL2	1	R1091N
1355.423	1.0	1664891	START	n/a	n/a	n/a	n/a	-999	-999	n/a	n/a	-999	12	[-999, -999, -999]	n/a	0	1	0	n/a	n/a	0.0	0	0	0	PAL2	1	R1091N
1356.423	0.017	1665891	MATH_START	n/a	n/a	n/a	n/a	-999	-999	n/a	n/a	-999	12	[0, 0, 0]	n/a	0	1	0	n/a	n/a	0.0	0	0	0	PAL2	1	R1091N
1356.44	3.885	1665908	PROB	3.853	n/a	n/a	n/a	-999	-999	n/a	n/a	-999	12	[2, 6, 3]	11	0	1	0	n/a	n/a	0.0	0	0	0	PAL2	1	R1091N
1360.325	3.751	1669793	PROB	3.728	n/a	n/a	n/a	-999	-999	n/a	n/a	-999	12	[3, 5, 2]	10	0	1	0	n/a	n/a	0.0	0	0	0	PAL2	1	R1091N
1364.076	2.9	1673544	PROB	2.873	n/a	n/a	n/a	-999	-999	n/a	n/a	-999	12	[6, 5, 7]	18	0	1	0	n/a	n/a	0.0	0	0	0	PAL2	1	R1091N
1366.976	2.449	1676444	PROB	2.42	n/a	n/a	n/a	-999	-999	n/a	n/a	-999	12	[7, 5, 5]	17	0	1	0	n/a	n/a	0.0	0	0	0	PAL2	1	R1091N
1369.425	3.752	1678893	PROB	3.724	n/a	n/a	n/a	-999	-999	n/a	n/a	-999	12	[3, 5, 2]	10	0	1	0	n/a	n/a	0.0	0	0	0	PAL2	1	R1091N
1373.177	9.155	1682645	PROB	9.155	n/a	n/a	n/a	-999	-999	n/a	n/a	-999	12	[2, 9, 8]	19	0	1	0	n/a	n/a	0.0	0	0	0	PAL2	1	R1091N
1382.332	0.012	1691799	STOP	n/a	n/a	n/a	n/a	-999	-999	n/a	n/a	-999	12	[-999, -999, -999]	n/a	0	1	0	n/a	n/a	0.0	0	0	0	PAL2	1	R1091N
1382.344	0.0	1691811	MATH_END	n/a	n/a	n/a	n/a	-999	-999	n/a	n/a	-999	12	[0, 0, 0]	n/a	0	1	0	n/a	n/a	0.0	0	0	0	PAL2	1	R1091N
1382.344	0.017	1691811	TEST_START	n/a	n/a	n/a	n/a	-999	-999	n/a	n/a	-999	12	[0, 0, 0]	n/a	0	1	0	n/a	n/a	0.0	0	0	0	PAL2	1	R1091N
1382.361	0.25	1691828	TEST_ORIENT	n/a	n/a	CROWN	STORM	5	1	CROWN	n/a	0	12	[0, 0, 0]	n/a	0	1	0	n/a	n/a	0.0	0	0	0	PAL2	1	R1091N
1383.245	4.0	1692712	TEST_PROBE	n/a	wordpools/wordpool_EN.txt	CROWN	STORM	5	1	CROWN	n/a	0	12	[0, 0, 0]	n/a	0	1	0	n/a	n/a	0.0	0	0	0	PAL2	1	R1091N
1383.246	5.008	1692713	REC_START	n/a	n/a	n/a	n/a	5	-999	n/a	n/a	0	12	[0, 0, 0]	n/a	0	1	0	n/a	n/a	0.0	0	0	0	PAL2	1	R1091N
1388.254	0.001	1697721	REC_END	n/a	n/a	n/a	n/a	5	-999	n/a	n/a	-999	12	[0, 0, 0]	n/a	0	1	0	n/a	n/a	0.0	0	0	0	PAL2	1	R1091N
1388.255	0.008	1697722	REC_EVENT	5.009	n/a	CROWN	STORM	5	1	CROWN	<>	0	12	[0, 0, 0]	n/a	0	1	0	n/a	n/a	0.0	0	0	0	PAL2	1	R1091N
1388.263	0.25	1697730	TEST_ORIENT	n/a	n/a	JUICE	WORM	4	2	JUICE	n/a	0	12	[0, 0, 0]	n/a	0	1	0	n/a	n/a	0.0	0	0	0	PAL2	1	R1091N
1388.968	4.6	1698435	STIM_ON	n/a	n/a	JUICE	WORM	4	2	JUICE	n/a	0	12	[0, 0, 0]	n/a	1	1	4600	ALF7	ALF8	3000.0	50	230	300	PAL2	1	R1091N
1389.18	4.0	1698647	TEST_PROBE	n/a	wordpools/wordpool_EN.txt	JUICE	WORM	4	2	JUICE	n/a	0	12	[0, 0, 0]	n/a	1	1	4600	ALF7	ALF8	3000.0	50	230	300	PAL2	1	R1091N
1389.181	5.024	1698648	REC_START	n/a	n/a	n/a	n/a	4	-999	n/a	n/a	0	12	[0, 0, 0]	n/a	1	1	4600	ALF7	ALF8	3000.0	50	230	300	PAL2	1	R1091N
1394.205	0.003	1703672	REC_END	n/a	n/a	n/a	n/a	4	-999	n/a	n/a	-999	12	[0, 0, 0]	n/a	0	1	0	n/a	n/a	0.0	0	0	0	PAL2	1	R1091N
1394.208	0.006	1703675	REC_EVENT	5.027	n/a	JUICE	WORM	4	2	JUICE	<>	0	12	[0, 0, 0]	n/a	0	1	0	n/a	n/a	0.0	0	0	0	PAL2	1	R1091N
1394.214	0.25	1703681	TEST_ORIENT	n/a	n/a	OAK	TOOL	3	3	OAK	TOOL	1	12	[0, 0, 0]	n/a	0	1	0	n/a	n/a	0.0	0	0	0	PAL2	1	R1091N
1395.014	4.0	1704481	TEST_PROBE	n/a	wordpools/wordpool_EN.txt	OAK	TOOL	3	3	OAK	TOOL	1	12	[0, 0, 0]	n/a	0	1	0	n/a	n/a	0.0	0	0	0	PAL2	1	R1091N
1395.015	2.652	1704482	REC_START	n/a	n/a	n/a	n/a	3	-999	n/a	TOOL	1	12	[0, 0, 0]	n/a	0	1	0	n/a	n/a	0.0	0	0	0	PAL2	1	R1091N
1397.667	2.364	1707134	REC_EVENT	2.652	n/a	OAK	TOOL	3	3	OAK	TOOL	1	12	[0, 0, 0]	n/a	0	1	0	n/a	n/a	0.0	0	0	0	PAL2	1	R1091N
1400.031	0.017	1709498	REC_END	n/a	n/a	n/a	n/a	3	-999	n/a	n/a	-999	12	[0, 0, 0]	n/a	0	1	0	n/a	n/a	0.0	0	0	0	PAL2	1	R1091N
1400.048	0.25	1709515	TEST_ORIENT	n/a	n/a	MOOSE	BANK	2	4	MOOSE	n/a	0	12	[0, 0, 0]	n/a	0	1	0	n/a	n/a	0.0	0	0	0	PAL2	1	R1091N
1400.874	4.6	1710341	STIM_ON	n/a	n/a	MOOSE	BANK	2	4	MOOSE	n/a	0	12	[0, 0, 0]	n/a	1	1	4600	ALF7	ALF8	3000.0	50	230	300	PAL2	1	R1091N
1401.082	4.0	1710549	TEST_PROBE	n/a	wordpools/wordpool_EN.txt	MOOSE	BANK	2	4	MOOSE	n/a	0	12	[0, 0, 0]	n/a	1	1	4600	ALF7	ALF8	3000.0	50	230	300	PAL2	1	R1091N
1401.082	5.015	1710549	REC_START	n/a	n/a	n/a	n/a	2	-999	n/a	n/a	0	12	[0, 0, 0]	n/a	1	1	4600	ALF7	ALF8	3000.0	50	230	300	PAL2	1	R1091N
1406.097	0.002	1715564	REC_EVENT	5.015	n/a	MOOSE	BANK	2	4	MOOSE	<>	0	12	[0, 0, 0]	n/a	0	1	0	n/a	n/a	0.0	0	0	0	PAL2	1	R1091N
1406.099	0.017	1715566	REC_END	n/a	n/a	n/a	n/a	2	-999	n/a	n/a	-999	12	[0, 0, 0]	n/a	0	1	0	n/a	n/a	0.0	0	0	0	PAL2	1	R1091N
1406.116	0.25	1715583	TEST_ORIENT	n/a	n/a	AXE	APE	1	5	AXE	APE	1	12	[0, 0, 0]	n/a	0	1	0	n/a	n/a	0.0	0	0	0	PAL2	1	R1091N
1407.016	4.0	1716483	TEST_PROBE	n/a	wordpools/wordpool_EN.txt	AXE	APE	1	5	AXE	APE	1	12	[0, 0, 0]	n/a	0	1	0	n/a	n/a	0.0	0	0	0	PAL2	1	R1091N
1407.017	1.268	1716484	REC_START	n/a	n/a	n/a	n/a	1	-999	n/a	APE	1	12	[0, 0, 0]	n/a	0	1	0	n/a	n/a	0.0	0	0	0	PAL2	1	R1091N
1408.285	3.748	1717752	REC_EVENT	1.268	n/a	AXE	APE	1	5	AXE	APE	1	12	[0, 0, 0]	n/a	0	1	0	n/a	n/a	0.0	0	0	0	PAL2	1	R1091N
1412.033	0.017	1721500	REC_END	n/a	n/a	n/a	n/a	1	-999	n/a	n/a	-999	12	[0, 0, 0]	n/a	0	1	0	n/a	n/a	0.0	0	0	0	PAL2	1	R1091N
1412.05	0.25	1721517	TEST_ORIENT	n/a	n/a	BEAN	VAN	6	6	VAN	n/a	0	12	[0, 0, 0]	n/a	0	1	0	n/a	n/a	0.0	0	0	0	PAL2	1	R1091N
1412.665	4.6	1722131	STIM_ON	n/a	n/a	BEAN	VAN	6	6	VAN	n/a	0	12	[0, 0, 0]	n/a	1	1	4600	ALF7	ALF8	3000.0	50	230	300	PAL2	1	R1091N
1412.867	4.0	1722333	TEST_PROBE	n/a	wordpools/wordpool_EN.txt	BEAN	VAN	6	6	VAN	n/a	0	12	[0, 0, 0]	n/a	1	1	4600	ALF7	ALF8	3000.0	50	230	300	PAL2	1	R1091N
1412.868	5.025	1722334	REC_START	n/a	n/a	n/a	n/a	6	-999	n/a	n/a	0	12	[0, 0, 0]	n/a	1	1	4600	ALF7	ALF8	3000.0	50	230	300	PAL2	1	R1091N
1417.893	0.002	1727359	REC_END	n/a	n/a	n/a	n/a	6	-999	n/a	n/a	-999	12	[0, 0, 0]	n/a	0	1	0	n/a	n/a	0.0	0	0	0	PAL2	1	R1091N
1417.895	1.645	1727361	REC_EVENT	5.027	n/a	BEAN	VAN	6	6	VAN	<>	0	12	[0, 0, 0]	n/a	0	1	0	n/a	n/a	0.0	0	0	0	PAL2	1	R1091N
1419.54	10.447	1729006	ENCODING_START	n/a	n/a	n/a	n/a	0	-999	n/a	n/a	-999	13	[0, 0, 0]	n/a	0	1	0	n/a	n/a	0.0	0	0	0	PAL2	1	R1091N
1429.987	0.25	1739453	STUDY_ORIENT	n/a	n/a	BOX	RICE	1	3	RICE	BOX	1	13	[0, 0, 0]	n/a	0	1	0	n/a	n/a	0.0	0	0	0	PAL2	1	R1091N
1430.854	4.0	1740320	STUDY_PAIR	n/a	wordpools/wordpool_EN.txt	BOX	RICE	1	3	RICE	BOX	1	13	[0, 0, 0]	n/a	0	1	0	n/a	n/a	0.0	0	0	0	PAL2	1	R1091N
1435.888	0.25	1745354	STUDY_ORIENT	n/a	n/a	SQUARE	SNAIL	2	6	SQUARE	n/a	0	13	[0, 0, 0]	n/a	0	1	0	n/a	n/a	0.0	0	0	0	PAL2	1	R1091N
1436.614	4.6	1746080	STIM_ON	n/a	n/a	SQUARE	SNAIL	2	6	SQUARE	n/a	0	13	[0, 0, 0]	n/a	1	1	4600	ALF7	ALF8	3000.0	50	230	300	PAL2	1	R1091N
1436.821	4.0	1746287	STUDY_PAIR	n/a	wordpools/wordpool_EN.txt	SQUARE	SNAIL	2	6	SQUARE	n/a	0	13	[0, 0, 0]	n/a	1	1	4600	ALF7	ALF8	3000.0	50	230	300	PAL2	1	R1091N
1441.839	0.25	1751305	STUDY_ORIENT	n/a	n/a	ROPE	SEED	3	5	ROPE	n/a	0	13	[0, 0, 0]	n/a	0	1	0	n/a	n/a	0.0	0	0	0	PAL2	1	R1091N
1442.739	4.0	1752205	STUDY_PAIR	n/a	wordpools/wordpool_EN.txt	ROPE	SEED	3	5	ROPE	n/a	0	13	[0, 0, 0]	n/a	0	1	0	n/a	n/a	0.0	0	0	0	PAL2	1	R1091N
1447.773	0.25	1757238	STUDY_ORIENT	n/a	n/a	RAIN	COUCH	4	2	COUCH	n/a	0	13	[0, 0, 0]	n/a	0	1	0	n/a	n/a	0.0	0	0	0	PAL2	1	R1091N
1448.451	4.6	1757916	STIM_ON	n/a	n/a	RAIN	COUCH	4	2	COUCH	n/a	0	13	[0, 0, 0]	n/a	1	1	4600	ALF7	ALF8	3000.0	50	230	300	PAL2	1	R1091N
1448.656	4.0	1758121	STUDY_PAIR	n/a	wordpools/wordpool_EN.txt	RAIN	COUCH	4	2	COUCH	n/a	0	13	[0, 0, 0]	n/a	1	1	4600	ALF7	ALF8	3000.0	50	230	300	PAL2	1	R1091N
1453.674	0.25	1763139	STUDY_ORIENT	n/a	n/a	PURSE	CLIFF	5	1	CLIFF	n/a	0	13	[0, 0, 0]	n/a	0	1	0	n/a	n/a	0.0	0	0	0	PAL2	1	R1091N
1454.506	4.0	1763971	STUDY_PAIR	n/a	wordpools/wordpool_EN.txt	PURSE	CLIFF	5	1	CLIFF	n/a	0	13	[0, 0, 0]	n/a	0	1	0	n/a	n/a	0.0	0	0	0	PAL2	1	R1091N
1459.524	0.25	1768989	STUDY_ORIENT	n/a	n/a	FORT	LIP	6	4	LIP	n/a	0	13	[0, 0, 0]	n/a	0	1	0	n/a	n/a	0.0	0	0	0	PAL2	1	R1091N
1460.295	4.6	1769760	STIM_ON	n/a	n/a	FORT	LIP	6	4	LIP	n/a	0	13	[0, 0, 0]	n/a	1	1	4600	ALF7	ALF8	3000.0	50	230	300	PAL2	1	R1091N
1460.507	4.0	1769972	STUDY_PAIR	n/a	wordpools/wordpool_EN.txt	FORT	LIP	6	4	LIP	n/a	0	13	[0, 0, 0]	n/a	1	1	4600	ALF7	ALF8	3000.0	50	230	300	PAL2	1	R1091N
1464.508	1.0	1773973	START	n/a	n/a	n/a	n/a	-999	-999	n/a	n/a	-999	13	[-999, -999, -999]	n/a	0	1	0	n/a	n/a	0.0	0	0	0	PAL2	1	R1091N
1465.508	0.017	1774973	MATH_START	n/a	n/a	n/a	n/a	-999	-999	n/a	n/a	-999	13	[0, 0, 0]	n/a	0	1	0	n/a	n/a	0.0	0	0	0	PAL2	1	R1091N
1465.525	16.154	1774990	PROB	16.128	n/a	n/a	n/a	-999	-999	n/a	n/a	-999	13	[4, 9, 8]	21	0	1	0	n/a	n/a	0.0	0	0	0	PAL2	1	R1091N
1481.679	9.958	1791143	PROB	9.958	n/a	n/a	n/a	-999	-999	n/a	n/a	-999	13	[4, 4, 5]	14	0	1	0	n/a	n/a	0.0	0	0	0	PAL2	1	R1091N
1491.637	0.01	1801101	STOP	n/a	n/a	n/a	n/a	-999	-999	n/a	n/a	-999	13	[-999, -999, -999]	n/a	0	1	0	n/a	n/a	0.0	0	0	0	PAL2	1	R1091N
1491.647	0.0	1801111	MATH_END	n/a	n/a	n/a	n/a	-999	-999	n/a	n/a	-999	13	[0, 0, 0]	n/a	0	1	0	n/a	n/a	0.0	0	0	0	PAL2	1	R1091N
1491.647	0.017	1801111	TEST_START	n/a	n/a	n/a	n/a	-999	-999	n/a	n/a	-999	13	[0, 0, 0]	n/a	0	1	0	n/a	n/a	0.0	0	0	0	PAL2	1	R1091N
1491.664	0.25	1801128	TEST_ORIENT	n/a	n/a	PURSE	CLIFF	5	1	CLIFF	n/a	0	13	[0, 0, 0]	n/a	0	1	0	n/a	n/a	0.0	0	0	0	PAL2	1	R1091N
1492.463	4.0	1801927	TEST_PROBE	n/a	wordpools/wordpool_EN.txt	PURSE	CLIFF	5	1	CLIFF	n/a	0	13	[0, 0, 0]	n/a	0	1	0	n/a	n/a	0.0	0	0	0	PAL2	1	R1091N
1492.464	5.021	1801928	REC_START	n/a	n/a	n/a	n/a	5	-999	n/a	n/a	0	13	[0, 0, 0]	n/a	0	1	0	n/a	n/a	0.0	0	0	0	PAL2	1	R1091N
1497.485	0.003	1806949	REC_EVENT	5.021	n/a	PURSE	CLIFF	5	1	CLIFF	<>	0	13	[0, 0, 0]	n/a	0	1	0	n/a	n/a	0.0	0	0	0	PAL2	1	R1091N
1497.488	0.009	1806952	REC_END	n/a	n/a	n/a	n/a	5	-999	n/a	n/a	-999	13	[0, 0, 0]	n/a	0	1	0	n/a	n/a	0.0	0	0	0	PAL2	1	R1091N
1497.497	0.25	1806961	TEST_ORIENT	n/a	n/a	RAIN	COUCH	4	2	COUCH	n/a	0	13	[0, 0, 0]	n/a	0	1	0	n/a	n/a	0.0	0	0	0	PAL2	1	R1091N
1498.381	4.0	1807845	TEST_PROBE	n/a	wordpools/wordpool_EN.txt	RAIN	COUCH	4	2	COUCH	n/a	0	13	[0, 0, 0]	n/a	0	1	0	n/a	n/a	0.0	0	0	0	PAL2	1	R1091N
1498.381	5.025	1807845	REC_START	n/a	n/a	n/a	n/a	4	-999	n/a	n/a	0	13	[0, 0, 0]	n/a	0	1	0	n/a	n/a	0.0	0	0	0	PAL2	1	R1091N
1503.406	0.002	1812870	REC_END	n/a	n/a	n/a	n/a	4	-999	n/a	n/a	-999	13	[0, 0, 0]	n/a	0	1	0	n/a	n/a	0.0	0	0	0	PAL2	1	R1091N
1503.408	0.007	1812872	REC_EVENT	5.027	n/a	RAIN	COUCH	4	2	COUCH	<>	0	13	[0, 0, 0]	n/a	0	1	0	n/a	n/a	0.0	0	0	0	PAL2	1	R1091N
1503.415	0.25	1812879	TEST_ORIENT	n/a	n/a	BOX	RICE	1	3	RICE	BOX	1	13	[0, 0, 0]	n/a	0	1	0	n/a	n/a	0.0	0	0	0	PAL2	1	R1091N
1504.316	4.0	1813780	TEST_PROBE	n/a	wordpools/wordpool_EN.txt	BOX	RICE	1	3	RICE	BOX	1	13	[0, 0, 0]	n/a	0	1	0	n/a	n/a	0.0	0	0	0	PAL2	1	R1091N
1504.316	1.694	1813780	REC_START	n/a	n/a	n/a	n/a	1	-999	n/a	BOX	1	13	[0, 0, 0]	n/a	0	1	0	n/a	n/a	0.0	0	0	0	PAL2	1	R1091N
1506.01	3.322	1815473	REC_EVENT	1.694	n/a	BOX	RICE	1	3	RICE	BOX	1	13	[0, 0, 0]	n/a	0	1	0	n/a	n/a	0.0	0	0	0	PAL2	1	R1091N
1509.332	0.017	1818795	REC_END	n/a	n/a	n/a	n/a	1	-999	n/a	n/a	-999	13	[0, 0, 0]	n/a	0	1	0	n/a	n/a	0.0	0	0	0	PAL2	1	R1091N
1509.349	0.25	1818812	TEST_ORIENT	n/a	n/a	FORT	LIP	6	4	LIP	n/a	0	13	[0, 0, 0]	n/a	0	1	0	n/a	n/a	0.0	0	0	0	PAL2	1	R1091N
1510.184	4.0	1819647	TEST_PROBE	n/a	wordpools/wordpool_EN.txt	FORT	LIP	6	4	LIP	n/a	0	13	[0, 0, 0]	n/a	0	1	0	n/a	n/a	0.0	0	0	0	PAL2	1	R1091N
1510.184	5.015	1819647	REC_START	n/a	n/a	n/a	n/a	6	-999	n/a	n/a	0	13	[0, 0, 0]	n/a	0	1	0	n/a	n/a	0.0	0	0	0	PAL2	1	R1091N
1515.199	0.002	1824662	REC_EVENT	5.015	n/a	FORT	LIP	6	4	LIP	<>	0	13	[0, 0, 0]	n/a	0	1	0	n/a	n/a	0.0	0	0	0	PAL2	1	R1091N
1515.201	0.017	1824664	REC_END	n/a	n/a	n/a	n/a	6	-999	n/a	n/a	-999	13	[0, 0, 0]	n/a	0	1	0	n/a	n/a	0.0	0	0	0	PAL2	1	R1091N
1515.218	0.25	1824681	TEST_ORIENT	n/a	n/a	ROPE	SEED	3	5	ROPE	n/a	0	13	[0, 0, 0]	n/a	0	1	0	n/a	n/a	0.0	0	0	0	PAL2	1	R1091N
1516.168	4.0	1825631	TEST_PROBE	n/a	wordpools/wordpool_EN.txt	ROPE	SEED	3	5	ROPE	n/a	0	13	[0, 0, 0]	n/a	0	1	0	n/a	n/a	0.0	0	0	0	PAL2	1	R1091N
1516.169	5.023	1825632	REC_START	n/a	n/a	n/a	n/a	3	-999	n/a	n/a	0	13	[0, 0, 0]	n/a	0	1	0	n/a	n/a	0.0	0	0	0	PAL2	1	R1091N
1521.192	0.004	1830655	REC_END	n/a	n/a	n/a	n/a	3	-999	n/a	n/a	-999	13	[0, 0, 0]	n/a	0	1	0	n/a	n/a	0.0	0	0	0	PAL2	1	R1091N
1521.196	0.006	1830659	REC_EVENT	5.027	n/a	ROPE	SEED	3	5	ROPE	<>	0	13	[0, 0, 0]	n/a	0	1	0	n/a	n/a	0.0	0	0	0	PAL2	1	R1091N
1521.202	0.25	1830665	TEST_ORIENT	n/a	n/a	SQUARE	SNAIL	2	6	SQUARE	n/a	0	13	[0, 0, 0]	n/a	0	1	0	n/a	n/a	0.0	0	0	0	PAL2	1	R1091N
1522.052	4.0	1831515	TEST_PROBE	n/a	wordpools/wordpool_EN.txt	SQUARE	SNAIL	2	6	SQUARE	n/a	0	13	[0, 0, 0]	n/a	0	1	0	n/a	n/a	0.0	0	0	0	PAL2	1	R1091N
1522.056	4.997	1831519	REC_START	n/a	n/a	n/a	n/a	2	-999	n/a	n/a	0	13	[0, 0, 0]	n/a	0	1	0	n/a	n/a	0.0	0	0	0	PAL2	1	R1091N
1527.053	0.001	1836516	REC_END	n/a	n/a	n/a	n/a	2	-999	n/a	n/a	-999	13	[0, 0, 0]	n/a	0	1	0	n/a	n/a	0.0	0	0	0	PAL2	1	R1091N
1527.054	1.591	1836517	REC_EVENT	4.998	n/a	SQUARE	SNAIL	2	6	SQUARE	<>	0	13	[0, 0, 0]	n/a	0	1	0	n/a	n/a	0.0	0	0	0	PAL2	1	R1091N
1528.645	10.444	1838108	ENCODING_START	n/a	n/a	n/a	n/a	0	-999	n/a	n/a	-999	14	[0, 0, 0]	n/a	0	0	0	n/a	n/a	0.0	0	0	0	PAL2	1	R1091N
1539.089	0.25	1848551	STUDY_ORIENT	n/a	n/a	SKY	SUIT	1	3	SUIT	n/a	0	14	[0, 0, 0]	n/a	0	0	0	n/a	n/a	0.0	0	0	0	PAL2	1	R1091N
1539.905	4.0	1849367	STUDY_PAIR	n/a	wordpools/wordpool_EN.txt	SKY	SUIT	1	3	SUIT	n/a	0	14	[0, 0, 0]	n/a	0	0	0	n/a	n/a	0.0	0	0	0	PAL2	1	R1091N
1544.923	0.25	1854385	STUDY_ORIENT	n/a	n/a	MOON	STEAK	2	2	MOON	n/a	0	14	[0, 0, 0]	n/a	0	0	0	n/a	n/a	0.0	0	0	0	PAL2	1	R1091N
1545.823	4.0	1855285	STUDY_PAIR	n/a	wordpools/wordpool_EN.txt	MOON	STEAK	2	2	MOON	n/a	0	14	[0, 0, 0]	n/a	0	0	0	n/a	n/a	0.0	0	0	0	PAL2	1	R1091N
1550.857	0.25	1860319	STUDY_ORIENT	n/a	n/a	PARK	CUP	3	1	CUP	n/a	0	14	[0, 0, 0]	n/a	0	0	0	n/a	n/a	0.0	0	0	0	PAL2	1	R1091N
1551.757	4.0	1861219	STUDY_PAIR	n/a	wordpools/wordpool_EN.txt	PARK	CUP	3	1	CUP	n/a	0	14	[0, 0, 0]	n/a	0	0	0	n/a	n/a	0.0	0	0	0	PAL2	1	R1091N
1556.775	0.25	1866237	STUDY_ORIENT	n/a	n/a	ICE	NET	4	4	NET	n/a	0	14	[0, 0, 0]	n/a	0	0	0	n/a	n/a	0.0	0	0	0	PAL2	1	R1091N
1557.625	4.0	1867087	STUDY_PAIR	n/a	wordpools/wordpool_EN.txt	ICE	NET	4	4	NET	n/a	0	14	[0, 0, 0]	n/a	0	0	0	n/a	n/a	0.0	0	0	0	PAL2	1	R1091N
1562.659	0.25	1872121	STUDY_ORIENT	n/a	n/a	SKUNK	SNAKE	5	5	SKUNK	n/a	0	14	[0, 0, 0]	n/a	0	0	0	n/a	n/a	0.0	0	0	0	PAL2	1	R1091N
1563.609	4.0	1873071	STUDY_PAIR	n/a	wordpools/wordpool_EN.txt	SKUNK	SNAKE	5	5	SKUNK	n/a	0	14	[0, 0, 0]	n/a	0	0	0	n/a	n/a	0.0	0	0	0	PAL2	1	R1091N
1568.627	0.25	1878088	STUDY_ORIENT	n/a	n/a	JAIL	BRUSH	6	6	BRUSH	n/a	0	14	[0, 0, 0]	n/a	0	0	0	n/a	n/a	0.0	0	0	0	PAL2	1	R1091N
1569.577	4.0	1879038	STUDY_PAIR	n/a	wordpools/wordpool_EN.txt	JAIL	BRUSH	6	6	BRUSH	n/a	0	14	[0, 0, 0]	n/a	0	0	0	n/a	n/a	0.0	0	0	0	PAL2	1	R1091N
1573.595	0.999	1883056	START	n/a	n/a	n/a	n/a	-999	-999	n/a	n/a	-999	14	[-999, -999, -999]	n/a	0	0	0	n/a	n/a	0.0	0	0	0	PAL2	1	R1091N
1574.594	0.017	1884055	MATH_START	n/a	n/a	n/a	n/a	-999	-999	n/a	n/a	-999	14	[0, 0, 0]	n/a	0	0	0	n/a	n/a	0.0	0	0	0	PAL2	1	R1091N
1574.611	3.667	1884072	PROB	3.634	n/a	n/a	n/a	-999	-999	n/a	n/a	-999	14	[7, 3, 1]	11	0	0	0	n/a	n/a	0.0	0	0	0	PAL2	1	R1091N
1578.278	4.067	1887739	PROB	4.039	n/a	n/a	n/a	-999	-999	n/a	n/a	-999	14	[8, 8, 2]	18	0	0	0	n/a	n/a	0.0	0	0	0	PAL2	1	R1091N
1582.345	5.302	1891806	PROB	5.268	n/a	n/a	n/a	-999	-999	n/a	n/a	-999	14	[8, 4, 3]	15	0	0	0	n/a	n/a	0.0	0	0	0	PAL2	1	R1091N
1587.647	10.23	1897108	PROB	10.23	n/a	n/a	n/a	-999	-999	n/a	n/a	-999	14	[6, 2, 7]	17	0	0	0	n/a	n/a	0.0	0	0	0	PAL2	1	R1091N
1597.877	0.005	1907338	STOP	n/a	n/a	n/a	n/a	-999	-999	n/a	n/a	-999	14	[-999, -999, -999]	n/a	0	0	0	n/a	n/a	0.0	0	0	0	PAL2	1	R1091N
1597.882	0.0	1907343	MATH_END	n/a	n/a	n/a	n/a	-999	-999	n/a	n/a	-999	14	[0, 0, 0]	n/a	0	0	0	n/a	n/a	0.0	0	0	0	PAL2	1	R1091N
1597.882	0.016	1907343	TEST_START	n/a	n/a	n/a	n/a	-999	-999	n/a	n/a	-999	14	[0, 0, 0]	n/a	0	0	0	n/a	n/a	0.0	0	0	0	PAL2	1	R1091N
1597.898	0.25	1907359	TEST_ORIENT	n/a	n/a	PARK	CUP	3	1	CUP	n/a	0	14	[0, 0, 0]	n/a	0	0	0	n/a	n/a	0.0	0	0	0	PAL2	1	R1091N
1598.699	0.0	1908159	REC_START	n/a	n/a	n/a	n/a	3	-999	n/a	n/a	0	14	[0, 0, 0]	n/a	0	0	0	n/a	n/a	0.0	0	0	0	PAL2	1	R1091N
1598.699	4.0	1908159	TEST_PROBE	n/a	wordpools/wordpool_EN.txt	PARK	CUP	3	1	CUP	n/a	0	14	[0, 0, 0]	n/a	0	0	0	n/a	n/a	0.0	0	0	0	PAL2	1	R1091N
1603.714	0.002	1913174	REC_EVENT	5.015	n/a	PARK	CUP	3	1	CUP	<>	0	14	[0, 0, 0]	n/a	0	0	0	n/a	n/a	0.0	0	0	0	PAL2	1	R1091N
1603.716	0.017	1913176	REC_END	n/a	n/a	n/a	n/a	3	-999	n/a	n/a	-999	14	[0, 0, 0]	n/a	0	0	0	n/a	n/a	0.0	0	0	0	PAL2	1	R1091N
1603.733	0.25	1913193	TEST_ORIENT	n/a	n/a	MOON	STEAK	2	2	MOON	n/a	0	14	[0, 0, 0]	n/a	0	0	0	n/a	n/a	0.0	0	0	0	PAL2	1	R1091N
1604.616	4.0	1914076	TEST_PROBE	n/a	wordpools/wordpool_EN.txt	MOON	STEAK	2	2	MOON	n/a	0	14	[0, 0, 0]	n/a	0	0	0	n/a	n/a	0.0	0	0	0	PAL2	1	R1091N
1604.616	5.015	1914076	REC_START	n/a	n/a	n/a	n/a	2	-999	n/a	n/a	0	14	[0, 0, 0]	n/a	0	0	0	n/a	n/a	0.0	0	0	0	PAL2	1	R1091N
1609.631	0.003	1919091	REC_EVENT	5.015	n/a	MOON	STEAK	2	2	MOON	<>	0	14	[0, 0, 0]	n/a	0	0	0	n/a	n/a	0.0	0	0	0	PAL2	1	R1091N
1609.634	0.016	1919094	REC_END	n/a	n/a	n/a	n/a	2	-999	n/a	n/a	-999	14	[0, 0, 0]	n/a	0	0	0	n/a	n/a	0.0	0	0	0	PAL2	1	R1091N
1609.65	0.25	1919110	TEST_ORIENT	n/a	n/a	SKY	SUIT	1	3	SUIT	n/a	0	14	[0, 0, 0]	n/a	0	0	0	n/a	n/a	0.0	0	0	0	PAL2	1	R1091N
1610.483	0.0	1919943	REC_START	n/a	n/a	n/a	n/a	1	-999	n/a	n/a	0	14	[0, 0, 0]	n/a	0	0	0	n/a	n/a	0.0	0	0	0	PAL2	1	R1091N
1610.483	4.0	1919943	TEST_PROBE	n/a	wordpools/wordpool_EN.txt	SKY	SUIT	1	3	SUIT	n/a	0	14	[0, 0, 0]	n/a	0	0	0	n/a	n/a	0.0	0	0	0	PAL2	1	R1091N
1615.5	0.004	1924960	REC_END	n/a	n/a	n/a	n/a	1	-999	n/a	n/a	-999	14	[0, 0, 0]	n/a	0	0	0	n/a	n/a	0.0	0	0	0	PAL2	1	R1091N
1615.504	0.013	1924964	REC_EVENT	5.021	n/a	SKY	SUIT	1	3	SUIT	<>	0	14	[0, 0, 0]	n/a	0	0	0	n/a	n/a	0.0	0	0	0	PAL2	1	R1091N
1615.517	0.25	1924977	TEST_ORIENT	n/a	n/a	ICE	NET	4	4	NET	n/a	0	14	[0, 0, 0]	n/a	0	0	0	n/a	n/a	0.0	0	0	0	PAL2	1	R1091N
1616.501	4.0	1925961	TEST_PROBE	n/a	wordpools/wordpool_EN.txt	ICE	NET	4	4	NET	n/a	0	14	[0, 0, 0]	n/a	0	0	0	n/a	n/a	0.0	0	0	0	PAL2	1	R1091N
1616.501	1.386	1925961	REC_START	n/a	n/a	n/a	n/a	4	-999	n/a	n/a	0	14	[0, 0, 0]	n/a	0	0	0	n/a	n/a	0.0	0	0	0	PAL2	1	R1091N
1617.887	3.631	1927347	REC_EVENT	1.386	n/a	ICE	NET	4	4	NET	<>	0	14	[0, 0, 0]	n/a	0	0	0	n/a	n/a	0.0	0	0	0	PAL2	1	R1091N
1621.518	0.017	1930978	REC_END	n/a	n/a	n/a	n/a	4	-999	n/a	n/a	-999	14	[0, 0, 0]	n/a	0	0	0	n/a	n/a	0.0	0	0	0	PAL2	1	R1091N
1621.535	0.25	1930995	TEST_ORIENT	n/a	n/a	SKUNK	SNAKE	5	5	SKUNK	n/a	0	14	[0, 0, 0]	n/a	0	0	0	n/a	n/a	0.0	0	0	0	PAL2	1	R1091N
1622.551	4.0	1932011	TEST_PROBE	n/a	wordpools/wordpool_EN.txt	SKUNK	SNAKE	5	5	SKUNK	n/a	0	14	[0, 0, 0]	n/a	0	0	0	n/a	n/a	0.0	0	0	0	PAL2	1	R1091N
1622.552	5.009	1932012	REC_START	n/a	n/a	n/a	n/a	5	-999	n/a	n/a	0	14	[0, 0, 0]	n/a	0	0	0	n/a	n/a	0.0	0	0	0	PAL2	1	R1091N
1627.561	0.0	1937021	REC_EVENT	5.009	n/a	SKUNK	SNAKE	5	5	SKUNK	<>	0	14	[0, 0, 0]	n/a	0	0	0	n/a	n/a	0.0	0	0	0	PAL2	1	R1091N
1627.561	0.009	1937021	REC_END	n/a	n/a	n/a	n/a	5	-999	n/a	n/a	-999	14	[0, 0, 0]	n/a	0	0	0	n/a	n/a	0.0	0	0	0	PAL2	1	R1091N
1627.57	0.25	1937030	TEST_ORIENT	n/a	n/a	JAIL	BRUSH	6	6	BRUSH	n/a	0	14	[0, 0, 0]	n/a	0	0	0	n/a	n/a	0.0	0	0	0	PAL2	1	R1091N
1628.57	4.0	1938030	TEST_PROBE	n/a	wordpools/wordpool_EN.txt	JAIL	BRUSH	6	6	BRUSH	n/a	0	14	[0, 0, 0]	n/a	0	0	0	n/a	n/a	0.0	0	0	0	PAL2	1	R1091N
1628.571	5.008	1938031	REC_START	n/a	n/a	n/a	n/a	6	-999	n/a	n/a	0	14	[0, 0, 0]	n/a	0	0	0	n/a	n/a	0.0	0	0	0	PAL2	1	R1091N
1633.579	0.001	1943038	REC_END	n/a	n/a	n/a	n/a	6	-999	n/a	n/a	-999	14	[0, 0, 0]	n/a	0	0	0	n/a	n/a	0.0	0	0	0	PAL2	1	R1091N
1633.58	1.369	1943039	REC_EVENT	5.009	n/a	JAIL	BRUSH	6	6	BRUSH	<>	0	14	[0, 0, 0]	n/a	0	0	0	n/a	n/a	0.0	0	0	0	PAL2	1	R1091N
1634.949	10.44	1944408	ENCODING_START	n/a	n/a	n/a	n/a	0	-999	n/a	n/a	-999	15	[0, 0, 0]	n/a	0	1	0	n/a	n/a	0.0	0	0	0	PAL2	1	R1091N
1645.389	0.25	1954848	STUDY_ORIENT	n/a	n/a	PEAR	GLOVE	1	5	GLOVE	n/a	0	15	[0, 0, 0]	n/a	0	1	0	n/a	n/a	0.0	0	0	0	PAL2	1	R1091N
1646.083	4.6	1955542	STIM_ON	n/a	n/a	PEAR	GLOVE	1	5	GLOVE	n/a	0	15	[0, 0, 0]	n/a	1	1	4600	ALF7	ALF8	3000.0	50	230	300	PAL2	1	R1091N
1646.29	4.0	1955749	STUDY_PAIR	n/a	wordpools/wordpool_EN.txt	PEAR	GLOVE	1	5	GLOVE	n/a	0	15	[0, 0, 0]	n/a	1	1	4600	ALF7	ALF8	3000.0	50	230	300	PAL2	1	R1091N
1651.324	0.25	1960783	STUDY_ORIENT	n/a	n/a	WEED	PET	2	4	PET	n/a	0	15	[0, 0, 0]	n/a	0	1	0	n/a	n/a	0.0	0	0	0	PAL2	1	R1091N
1652.174	4.0	1961633	STUDY_PAIR	n/a	wordpools/wordpool_EN.txt	WEED	PET	2	4	PET	n/a	0	15	[0, 0, 0]	n/a	0	1	0	n/a	n/a	0.0	0	0	0	PAL2	1	R1091N
1657.192	0.25	1966651	STUDY_ORIENT	n/a	n/a	OWL	SPOON	3	1	SPOON	n/a	0	15	[0, 0, 0]	n/a	0	1	0	n/a	n/a	0.0	0	0	0	PAL2	1	R1091N
1657.859	4.6	1967318	STIM_ON	n/a	n/a	OWL	SPOON	3	1	SPOON	n/a	0	15	[0, 0, 0]	n/a	1	1	4600	ALF7	ALF8	3000.0	50	230	300	PAL2	1	R1091N
1658.075	4.0	1967534	STUDY_PAIR	n/a	wordpools/wordpool_EN.txt	OWL	SPOON	3	1	SPOON	n/a	0	15	[0, 0, 0]	n/a	1	1	4600	ALF7	ALF8	3000.0	50	230	300	PAL2	1	R1091N
1663.093	0.25	1972551	STUDY_ORIENT	n/a	n/a	JAR	LAMB	4	2	LAMB	n/a	0	15	[0, 0, 0]	n/a	0	1	0	n/a	n/a	0.0	0	0	0	PAL2	1	R1091N
1663.993	4.0	1973451	STUDY_PAIR	n/a	wordpools/wordpool_EN.txt	JAR	LAMB	4	2	LAMB	n/a	0	15	[0, 0, 0]	n/a	0	1	0	n/a	n/a	0.0	0	0	0	PAL2	1	R1091N
1669.027	0.25	1978485	STUDY_ORIENT	n/a	n/a	ANT	BOARD	5	3	ANT	n/a	0	15	[0, 0, 0]	n/a	0	1	0	n/a	n/a	0.0	0	0	0	PAL2	1	R1091N
1669.732	4.6	1979190	STIM_ON	n/a	n/a	ANT	BOARD	5	3	ANT	n/a	0	15	[0, 0, 0]	n/a	1	1	4600	ALF7	ALF8	3000.0	50	230	300	PAL2	1	R1091N
1669.944	4.0	1979402	STUDY_PAIR	n/a	wordpools/wordpool_EN.txt	ANT	BOARD	5	3	ANT	n/a	0	15	[0, 0, 0]	n/a	1	1	4600	ALF7	ALF8	3000.0	50	230	300	PAL2	1	R1091N
