onset	duration	sample	trial_type	response_time	stim_file	study_1	study_2	serialpos	probepos	probe_word	resp_word	correct	list	test	answer	stimulation	stim_list	stim_duration	anode_label	cathode_label	amplitude	pulse_freq	n_pulses	pulse_width	experiment	session	subject
0.0	59.996	193718	SESS_START	n/a	n/a	n/a	n/a	-999	-999	n/a	n/a	-999	-999	[0, 0, 0]	n/a	0	0	0	n/a	n/a	0.0	0	0	0	PAL2	1	R1031M
59.996	1.016	223713	START	n/a	n/a	n/a	n/a	-999	-999	n/a	n/a	-999	-1	[-999, -999, -999]	n/a	0	-999	0	n/a	n/a	0.0	0	0	0	PAL2	1	R1031M
61.012	3.284	224221	PROB	3.257	n/a	n/a	n/a	-999	-999	n/a	n/a	-999	-1	[7, 1, 6]	14	0	-999	0	n/a	n/a	0.0	0	0	0	PAL2	1	R1031M
64.296	2.383	225863	PROB	2.348	n/a	n/a	n/a	-999	-999	n/a	n/a	-999	-1	[9, 8, 6]	23	0	-999	0	n/a	n/a	0.0	0	0	0	PAL2	1	R1031M
66.679	2.601	227054	PROB	2.582	n/a	n/a	n/a	-999	-999	n/a	n/a	-999	-1	[2, 9, 5]	16	0	-999	0	n/a	n/a	0.0	0	0	0	PAL2	1	R1031M
69.28	3.484	228355	PROB	3.453	n/a	n/a	n/a	-999	-999	n/a	n/a	-999	-1	[1, 2, 2]	5	0	-999	0	n/a	n/a	0.0	0	0	0	PAL2	1	R1031M
72.764	4.235	230096	PROB	4.209	n/a	n/a	n/a	-999	-999	n/a	n/a	-999	-1	[5, 6, 6]	17	0	-999	0	n/a	n/a	0.0	0	0	0	PAL2	1	R1031M
76.999	3.846	232214	PROB	3.846	n/a	n/a	n/a	-999	-999	n/a	n/a	-999	-1	[8, 4, 8]	20	0	-999	0	n/a	n/a	0.0	0	0	0	PAL2	1	R1031M
80.845	42.647	234136	STOP	n/a	n/a	n/a	n/a	-999	-999	n/a	n/a	-999	-1	[-999, -999, -999]	n/a	0	-999	0	n/a	n/a	0.0	0	0	0	PAL2	1	R1031M
123.492	10.451	255458	ENCODING_START	n/a	n/a	n/a	n/a	0	-999	n/a	n/a	-999	1	[0, 0, 0]	n/a	0	0	0	n/a	n/a	0.0	0	0	0	PAL2	1	R1031M
133.943	0.25	260683	STUDY_ORIENT	n/a	n/a	KEY	SAIL	1	1	KEY	SAIL	1	1	[0, 0, 0]	n/a	0	0	0	n/a	n/a	0.0	0	0	0	PAL2	1	R1031M
134.827	4.0	261125	STUDY_PAIR	n/a	wordpools/wordpool_EN.txt	KEY	SAIL	1	1	KEY	SAIL	1	1	[0, 0, 0]	n/a	0	0	0	n/a	n/a	0.0	0	0	0	PAL2	1	R1031M
139.861	0.25	263641	STUDY_ORIENT	n/a	n/a	THREAD	PALM	2	2	THREAD	PALM	1	1	[0, 0, 0]	n/a	0	0	0	n/a	n/a	0.0	0	0	0	PAL2	1	R1031M
140.878	4.0	264150	STUDY_PAIR	n/a	wordpools/wordpool_EN.txt	THREAD	PALM	2	2	THREAD	PALM	1	1	[0, 0, 0]	n/a	0	0	0	n/a	n/a	0.0	0	0	0	PAL2	1	R1031M
145.912	0.25	266667	STUDY_ORIENT	n/a	n/a	COUCH	TOOL	3	5	COUCH	TOOL	1	1	[0, 0, 0]	n/a	0	0	0	n/a	n/a	0.0	0	0	0	PAL2	1	R1031M
146.912	4.0	267167	STUDY_PAIR	n/a	wordpools/wordpool_EN.txt	COUCH	TOOL	3	5	COUCH	TOOL	1	1	[0, 0, 0]	n/a	0	0	0	n/a	n/a	0.0	0	0	0	PAL2	1	R1031M
151.93	0.25	269675	STUDY_ORIENT	n/a	n/a	GOLD	STREET	4	6	STREET	GOLD	1	1	[0, 0, 0]	n/a	0	0	0	n/a	n/a	0.0	0	0	0	PAL2	1	R1031M
152.88	4.0	270150	STUDY_PAIR	n/a	wordpools/wordpool_EN.txt	GOLD	STREET	4	6	STREET	GOLD	1	1	[0, 0, 0]	n/a	0	0	0	n/a	n/a	0.0	0	0	0	PAL2	1	R1031M
157.898	0.25	272659	STUDY_ORIENT	n/a	n/a	BOAT	PLANT	5	3	PLANT	BOAT	1	1	[0, 0, 0]	n/a	0	0	0	n/a	n/a	0.0	0	0	0	PAL2	1	R1031M
158.732	4.0	273076	STUDY_PAIR	n/a	wordpools/wordpool_EN.txt	BOAT	PLANT	5	3	PLANT	BOAT	1	1	[0, 0, 0]	n/a	0	0	0	n/a	n/a	0.0	0	0	0	PAL2	1	R1031M
163.766	0.25	275593	STUDY_ORIENT	n/a	n/a	CORD	DUCK	6	4	DUCK	CORD	1	1	[0, 0, 0]	n/a	0	0	0	n/a	n/a	0.0	0	0	0	PAL2	1	R1031M
164.733	4.0	276076	STUDY_PAIR	n/a	wordpools/wordpool_EN.txt	CORD	DUCK	6	4	DUCK	CORD	1	1	[0, 0, 0]	n/a	0	0	0	n/a	n/a	0.0	0	0	0	PAL2	1	R1031M
168.751	0.999	278085	START	n/a	n/a	n/a	n/a	-999	-999	n/a	n/a	-999	1	[-999, -999, -999]	n/a	0	0	0	n/a	n/a	0.0	0	0	0	PAL2	1	R1031M
169.75	0.017	278584	MATH_START	n/a	n/a	n/a	n/a	-999	-999	n/a	n/a	-999	1	[0, 0, 0]	n/a	0	0	0	n/a	n/a	0.0	0	0	0	PAL2	1	R1031M
169.767	3.667	278593	PROB	3.638	n/a	n/a	n/a	-999	-999	n/a	n/a	-999	1	[6, 2, 2]	10	0	0	0	n/a	n/a	0.0	0	0	0	PAL2	1	R1031M
173.434	2.801	280426	PROB	2.771	n/a	n/a	n/a	-999	-999	n/a	n/a	-999	1	[5, 4, 8]	17	0	0	0	n/a	n/a	0.0	0	0	0	PAL2	1	R1031M
176.235	3.333	281827	PROB	3.297	n/a	n/a	n/a	-999	-999	n/a	n/a	-999	1	[5, 7, 8]	20	0	0	0	n/a	n/a	0.0	0	0	0	PAL2	1	R1031M
179.568	2.535	283493	PROB	2.509	n/a	n/a	n/a	-999	-999	n/a	n/a	-999	1	[2, 1, 9]	12	0	0	0	n/a	n/a	0.0	0	0	0	PAL2	1	R1031M
182.103	2.416	284760	PROB	2.397	n/a	n/a	n/a	-999	-999	n/a	n/a	-999	1	[3, 2, 8]	13	0	0	0	n/a	n/a	0.0	0	0	0	PAL2	1	R1031M
184.519	2.868	285968	PROB	2.846	n/a	n/a	n/a	-999	-999	n/a	n/a	-999	1	[2, 5, 9]	16	0	0	0	n/a	n/a	0.0	0	0	0	PAL2	1	R1031M
187.387	2.634	287402	PROB	2.634	n/a	n/a	n/a	-999	-999	n/a	n/a	-999	1	[8, 5, 1]	14	0	0	0	n/a	n/a	0.0	0	0	0	PAL2	1	R1031M
190.021	0.017	288719	STOP	n/a	n/a	n/a	n/a	-999	-999	n/a	n/a	-999	1	[-999, -999, -999]	n/a	0	0	0	n/a	n/a	0.0	0	0	0	PAL2	1	R1031M
190.038	0.0	288727	MATH_END	n/a	n/a	n/a	n/a	-999	-999	n/a	n/a	-999	1	[0, 0, 0]	n/a	0	0	0	n/a	n/a	0.0	0	0	0	PAL2	1	R1031M
190.038	0.016	288727	TEST_START	n/a	n/a	n/a	n/a	-999	-999	n/a	n/a	-999	1	[0, 0, 0]	n/a	0	0	0	n/a	n/a	0.0	0	0	0	PAL2	1	R1031M
190.054	0.25	288735	TEST_ORIENT	n/a	n/a	KEY	SAIL	1	1	KEY	SAIL	1	1	[0, 0, 0]	n/a	0	0	0	n/a	n/a	0.0	0	0	0	PAL2	1	R1031M
190.955	4.0	289186	TEST_PROBE	n/a	wordpools/wordpool_EN.txt	KEY	SAIL	1	1	KEY	SAIL	1	1	[0, 0, 0]	n/a	0	0	0	n/a	n/a	0.0	0	0	0	PAL2	1	R1031M
190.956	1.178	289186	REC_START	n/a	n/a	n/a	n/a	1	-999	n/a	SAIL	1	1	[0, 0, 0]	n/a	0	0	0	n/a	n/a	0.0	0	0	0	PAL2	1	R1031M
192.134	3.847	289775	REC_EVENT	1.178	n/a	KEY	SAIL	1	1	KEY	SAIL	1	1	[0, 0, 0]	n/a	0	0	0	n/a	n/a	0.0	0	0	0	PAL2	1	R1031M
195.981	0.008	291699	REC_END	n/a	n/a	n/a	n/a	1	-999	n/a	n/a	-999	1	[0, 0, 0]	n/a	0	0	0	n/a	n/a	0.0	0	0	0	PAL2	1	R1031M
195.989	0.25	291703	TEST_ORIENT	n/a	n/a	THREAD	PALM	2	2	THREAD	PALM	1	1	[0, 0, 0]	n/a	0	0	0	n/a	n/a	0.0	0	0	0	PAL2	1	R1031M
196.972	4.0	292194	TEST_PROBE	n/a	wordpools/wordpool_EN.txt	THREAD	PALM	2	2	THREAD	PALM	1	1	[0, 0, 0]	n/a	0	0	0	n/a	n/a	0.0	0	0	0	PAL2	1	R1031M
196.973	0.982	292195	REC_START	n/a	n/a	n/a	n/a	2	-999	n/a	PALM	1	1	[0, 0, 0]	n/a	0	0	0	n/a	n/a	0.0	0	0	0	PAL2	1	R1031M
197.955	4.026	292686	REC_EVENT	0.982	n/a	THREAD	PALM	2	2	THREAD	PALM	1	1	[0, 0, 0]	n/a	0	0	0	n/a	n/a	0.0	0	0	0	PAL2	1	R1031M
201.981	0.009	294698	REC_END	n/a	n/a	n/a	n/a	2	-999	n/a	n/a	-999	1	[0, 0, 0]	n/a	0	0	0	n/a	n/a	0.0	0	0	0	PAL2	1	R1031M
201.99	0.25	294703	TEST_ORIENT	n/a	n/a	BOAT	PLANT	5	3	PLANT	BOAT	1	1	[0, 0, 0]	n/a	0	0	0	n/a	n/a	0.0	0	0	0	PAL2	1	R1031M
202.94	0.0	295178	REC_START	n/a	n/a	n/a	n/a	5	-999	n/a	BOAT	1	1	[0, 0, 0]	n/a	0	0	0	n/a	n/a	0.0	0	0	0	PAL2	1	R1031M
202.94	4.0	295178	TEST_PROBE	n/a	wordpools/wordpool_EN.txt	BOAT	PLANT	5	3	PLANT	BOAT	1	1	[0, 0, 0]	n/a	0	0	0	n/a	n/a	0.0	0	0	0	PAL2	1	R1031M
207.13	0.828	297273	REC_EVENT	4.19	n/a	BOAT	PLANT	5	3	PLANT	BOAT	1	1	[0, 0, 0]	n/a	0	0	0	n/a	n/a	0.0	0	0	0	PAL2	1	R1031M
207.958	0.017	297687	REC_END	n/a	n/a	n/a	n/a	5	-999	n/a	n/a	-999	1	[0, 0, 0]	n/a	0	0	0	n/a	n/a	0.0	0	0	0	PAL2	1	R1031M
207.975	0.25	297695	TEST_ORIENT	n/a	n/a	CORD	DUCK	6	4	DUCK	CORD	1	1	[0, 0, 0]	n/a	0	0	0	n/a	n/a	0.0	0	0	0	PAL2	1	R1031M
208.825	4.0	298120	TEST_PROBE	n/a	wordpools/wordpool_EN.txt	CORD	DUCK	6	4	DUCK	CORD	1	1	[0, 0, 0]	n/a	0	0	0	n/a	n/a	0.0	0	0	0	PAL2	1	R1031M
208.825	1.264	298120	REC_START	n/a	n/a	n/a	n/a	6	-999	n/a	CORD	1	1	[0, 0, 0]	n/a	0	0	0	n/a	n/a	0.0	0	0	0	PAL2	1	R1031M
210.089	3.753	298752	REC_EVENT	1.264	n/a	CORD	DUCK	6	4	DUCK	CORD	1	1	[0, 0, 0]	n/a	0	0	0	n/a	n/a	0.0	0	0	0	PAL2	1	R1031M
213.842	0.017	300628	REC_END	n/a	n/a	n/a	n/a	6	-999	n/a	n/a	-999	1	[0, 0, 0]	n/a	0	0	0	n/a	n/a	0.0	0	0	0	PAL2	1	R1031M
213.859	0.25	300637	TEST_ORIENT	n/a	n/a	COUCH	TOOL	3	5	COUCH	TOOL	1	1	[0, 0, 0]	n/a	0	0	0	n/a	n/a	0.0	0	0	0	PAL2	1	R1031M
214.859	4.0	301137	TEST_PROBE	n/a	wordpools/wordpool_EN.txt	COUCH	TOOL	3	5	COUCH	TOOL	1	1	[0, 0, 0]	n/a	0	0	0	n/a	n/a	0.0	0	0	0	PAL2	1	R1031M
214.86	1.009	301137	REC_START	n/a	n/a	n/a	n/a	3	-999	n/a	TOOL	1	1	[0, 0, 0]	n/a	0	0	0	n/a	n/a	0.0	0	0	0	PAL2	1	R1031M
215.869	3.999	301642	REC_EVENT	1.009	n/a	COUCH	TOOL	3	5	COUCH	TOOL	1	1	[0, 0, 0]	n/a	0	0	0	n/a	n/a	0.0	0	0	0	PAL2	1	R1031M
219.868	0.009	303641	REC_END	n/a	n/a	n/a	n/a	3	-999	n/a	n/a	-999	1	[0, 0, 0]	n/a	0	0	0	n/a	n/a	0.0	0	0	0	PAL2	1	R1031M
219.877	0.25	303645	TEST_ORIENT	n/a	n/a	GOLD	STREET	4	6	STREET	GOLD	1	1	[0, 0, 0]	n/a	0	0	0	n/a	n/a	0.0	0	0	0	PAL2	1	R1031M
220.727	0.0	304070	REC_START	n/a	n/a	n/a	n/a	4	-999	n/a	GOLD	1	1	[0, 0, 0]	n/a	0	0	0	n/a	n/a	0.0	0	0	0	PAL2	1	R1031M
220.727	4.0	304070	TEST_PROBE	n/a	wordpools/wordpool_EN.txt	GOLD	STREET	4	6	STREET	GOLD	1	1	[0, 0, 0]	n/a	0	0	0	n/a	n/a	0.0	0	0	0	PAL2	1	R1031M
222.027	3.718	304720	REC_EVENT	1.3	n/a	GOLD	STREET	4	6	STREET	GOLD	1	1	[0, 0, 0]	n/a	0	0	0	n/a	n/a	0.0	0	0	0	PAL2	1	R1031M
225.745	1.588	306579	REC_END	n/a	n/a	n/a	n/a	4	-999	n/a	n/a	-999	1	[0, 0, 0]	n/a	0	0	0	n/a	n/a	0.0	0	0	0	PAL2	1	R1031M
227.333	10.448	307373	ENCODING_START	n/a	n/a	n/a	n/a	0	-999	n/a	n/a	-999	2	[0, 0, 0]	n/a	0	1	0	n/a	n/a	0.0	0	0	0	PAL2	1	R1031M
237.781	0.25	312596	STUDY_ORIENT	n/a	n/a	BEAR	LEG	1	1	BEAR	LEG	1	2	[0, 0, 0]	n/a	0	1	0	n/a	n/a	0.0	0	0	0	PAL2	1	R1031M
238.613	4.0	313012	STUDY_PAIR	n/a	wordpools/wordpool_EN.txt	BEAR	LEG	1	1	BEAR	LEG	1	2	[0, 0, 0]	n/a	0	1	0	n/a	n/a	0.0	0	0	0	PAL2	1	R1031M
243.647	0.25	315529	STUDY_ORIENT	n/a	n/a	FOOD	BLUSH	2	6	FOOD	n/a	0	2	[0, 0, 0]	n/a	0	1	0	n/a	n/a	0.0	0	0	0	PAL2	1	R1031M
244.564	4.0	315988	STUDY_PAIR	n/a	wordpools/wordpool_EN.txt	FOOD	BLUSH	2	6	FOOD	n/a	0	2	[0, 0, 0]	n/a	0	1	0	n/a	n/a	0.0	0	0	0	PAL2	1	R1031M
249.582	0.25	318496	STUDY_ORIENT	n/a	n/a	GRASS	TEETH	3	5	GRASS	TEETH	1	2	[0, 0, 0]	n/a	0	1	0	n/a	n/a	0.0	0	0	0	PAL2	1	R1031M
250.549	4.0	318980	STUDY_PAIR	n/a	wordpools/wordpool_EN.txt	GRASS	TEETH	3	5	GRASS	TEETH	1	2	[0, 0, 0]	n/a	0	1	0	n/a	n/a	0.0	0	0	0	PAL2	1	R1031M
255.583	0.25	321497	STUDY_ORIENT	n/a	n/a	BARN	ROOF	4	4	ROOF	BARN	1	2	[0, 0, 0]	n/a	0	1	0	n/a	n/a	0.0	0	0	0	PAL2	1	R1031M
256.434	4.0	321922	STUDY_PAIR	n/a	wordpools/wordpool_EN.txt	BARN	ROOF	4	4	ROOF	BARN	1	2	[0, 0, 0]	n/a	0	1	0	n/a	n/a	0.0	0	0	0	PAL2	1	R1031M
261.451	0.25	324430	STUDY_ORIENT	n/a	n/a	BOMB	SHIRT	5	3	BOMB	SHIRT	1	2	[0, 0, 0]	n/a	0	1	0	n/a	n/a	0.0	0	0	0	PAL2	1	R1031M
262.252	4.0	324831	STUDY_PAIR	n/a	wordpools/wordpool_EN.txt	BOMB	SHIRT	5	3	BOMB	SHIRT	1	2	[0, 0, 0]	n/a	0	1	0	n/a	n/a	0.0	0	0	0	PAL2	1	R1031M
267.286	0.25	327347	STUDY_ORIENT	n/a	n/a	CHAIR	CROW	6	2	CROW	CHAIR	1	2	[0, 0, 0]	n/a	0	1	0	n/a	n/a	0.0	0	0	0	PAL2	1	R1031M
268.087	4.0	327748	STUDY_PAIR	n/a	wordpools/wordpool_EN.txt	CHAIR	CROW	6	2	CROW	CHAIR	1	2	[0, 0, 0]	n/a	0	1	0	n/a	n/a	0.0	0	0	0	PAL2	1	R1031M
272.105	0.999	329757	START	n/a	n/a	n/a	n/a	-999	-999	n/a	n/a	-999	2	[-999, -999, -999]	n/a	0	1	0	n/a	n/a	0.0	0	0	0	PAL2	1	R1031M
273.104	0.017	330256	MATH_START	n/a	n/a	n/a	n/a	-999	-999	n/a	n/a	-999	2	[0, 0, 0]	n/a	0	1	0	n/a	n/a	0.0	0	0	0	PAL2	1	R1031M
273.121	3.55	330265	PROB	3.523	n/a	n/a	n/a	-999	-999	n/a	n/a	-999	2	[9, 3, 3]	15	0	1	0	n/a	n/a	0.0	0	0	0	PAL2	1	R1031M
276.671	3.051	332040	PROB	3.029	n/a	n/a	n/a	-999	-999	n/a	n/a	-999	2	[9, 7, 5]	21	0	1	0	n/a	n/a	0.0	0	0	0	PAL2	1	R1031M
279.722	2.933	333565	PROB	2.906	n/a	n/a	n/a	-999	-999	n/a	n/a	-999	2	[7, 3, 6]	16	0	1	0	n/a	n/a	0.0	0	0	0	PAL2	1	R1031M
282.655	3.001	335031	PROB	2.965	n/a	n/a	n/a	-999	-999	n/a	n/a	-999	2	[2, 7, 1]	10	0	1	0	n/a	n/a	0.0	0	0	0	PAL2	1	R1031M
285.656	2.685	336532	PROB	2.653	n/a	n/a	n/a	-999	-999	n/a	n/a	-999	2	[9, 3, 7]	19	0	1	0	n/a	n/a	0.0	0	0	0	PAL2	1	R1031M
288.341	3.417	337874	PROB	3.384	n/a	n/a	n/a	-999	-999	n/a	n/a	-999	2	[5, 9, 7]	21	0	1	0	n/a	n/a	0.0	0	0	0	PAL2	1	R1031M
291.758	2.75	339582	PROB	2.75	n/a	n/a	n/a	-999	-999	n/a	n/a	-999	2	[5, 6, 4]	15	0	1	0	n/a	n/a	0.0	0	0	0	PAL2	1	R1031M
294.508	0.016	340957	STOP	n/a	n/a	n/a	n/a	-999	-999	n/a	n/a	-999	2	[-999, -999, -999]	n/a	0	1	0	n/a	n/a	0.0	0	0	0	PAL2	1	R1031M
294.524	0.0	340965	MATH_END	n/a	n/a	n/a	n/a	-999	-999	n/a	n/a	-999	2	[0, 0, 0]	n/a	0	1	0	n/a	n/a	0.0	0	0	0	PAL2	1	R1031M
294.524	0.017	340965	TEST_START	n/a	n/a	n/a	n/a	-999	-999	n/a	n/a	-999	2	[0, 0, 0]	n/a	0	1	0	n/a	n/a	0.0	0	0	0	PAL2	1	R1031M
294.541	0.25	340974	TEST_ORIENT	n/a	n/a	BEAR	LEG	1	1	BEAR	LEG	1	2	[0, 0, 0]	n/a	0	1	0	n/a	n/a	0.0	0	0	0	PAL2	1	R1031M
295.376	4.6	341391	STIM_ON	n/a	n/a	BEAR	LEG	1	1	BEAR	LEG	1	2	[0, 0, 0]	n/a	1	1	4600	LTD4	LTD5	1000.0	50	230	300	PAL2	1	R1031M
295.591	4.0	341499	TEST_PROBE	n/a	wordpools/wordpool_EN.txt	BEAR	LEG	1	1	BEAR	LEG	1	2	[0, 0, 0]	n/a	1	1	4600	LTD4	LTD5	1000.0	50	230	300	PAL2	1	R1031M
295.592	1.289	341499	REC_START	n/a	n/a	n/a	n/a	1	-999	n/a	LEG	1	2	[0, 0, 0]	n/a	1	1	4600	LTD4	LTD5	1000.0	50	230	300	PAL2	1	R1031M
296.881	3.727	342143	REC_EVENT	1.289	n/a	BEAR	LEG	1	1	BEAR	LEG	1	2	[0, 0, 0]	n/a	1	1	4600	LTD4	LTD5	1000.0	50	230	300	PAL2	1	R1031M
300.608	0.017	344007	REC_END	n/a	n/a	n/a	n/a	1	-999	n/a	n/a	-999	2	[0, 0, 0]	n/a	0	1	0	n/a	n/a	0.0	0	0	0	PAL2	1	R1031M
300.625	0.25	344015	TEST_ORIENT	n/a	n/a	CHAIR	CROW	6	2	CROW	CHAIR	1	2	[0, 0, 0]	n/a	0	1	0	n/a	n/a	0.0	0	0	0	PAL2	1	R1031M
301.542	4.0	344474	TEST_PROBE	n/a	wordpools/wordpool_EN.txt	CHAIR	CROW	6	2	CROW	CHAIR	1	2	[0, 0, 0]	n/a	0	1	0	n/a	n/a	0.0	0	0	0	PAL2	1	R1031M
301.543	2.036	344474	REC_START	n/a	n/a	n/a	n/a	6	-999	n/a	CHAIR	1	2	[0, 0, 0]	n/a	0	1	0	n/a	n/a	0.0	0	0	0	PAL2	1	R1031M
303.579	2.964	345492	REC_EVENT	2.036	n/a	CHAIR	CROW	6	2	CROW	CHAIR	1	2	[0, 0, 0]	n/a	0	1	0	n/a	n/a	0.0	0	0	0	PAL2	1	R1031M
306.543	0.017	346974	REC_END	n/a	n/a	n/a	n/a	6	-999	n/a	n/a	-999	2	[0, 0, 0]	n/a	0	1	0	n/a	n/a	0.0	0	0	0	PAL2	1	R1031M
306.56	0.25	346982	TEST_ORIENT	n/a	n/a	BOMB	SHIRT	5	3	BOMB	SHIRT	1	2	[0, 0, 0]	n/a	0	1	0	n/a	n/a	0.0	0	0	0	PAL2	1	R1031M
307.167	4.6	347286	STIM_ON	n/a	n/a	BOMB	SHIRT	5	3	BOMB	SHIRT	1	2	[0, 0, 0]	n/a	1	1	4600	LTD4	LTD5	1000.0	50	230	300	PAL2	1	R1031M
307.378	4.0	347391	TEST_PROBE	n/a	wordpools/wordpool_EN.txt	BOMB	SHIRT	5	3	BOMB	SHIRT	1	2	[0, 0, 0]	n/a	1	1	4600	LTD4	LTD5	1000.0	50	230	300	PAL2	1	R1031M
307.378	1.093	347391	REC_START	n/a	n/a	n/a	n/a	5	-999	n/a	SHIRT	1	2	[0, 0, 0]	n/a	1	1	4600	LTD4	LTD5	1000.0	50	230	300	PAL2	1	R1031M
308.471	3.924	347938	REC_EVENT	1.093	n/a	BOMB	SHIRT	5	3	BOMB	SHIRT	1	2	[0, 0, 0]	n/a	1	1	4600	LTD4	LTD5	1000.0	50	230	300	PAL2	1	R1031M
312.395	0.017	349900	REC_END	n/a	n/a	n/a	n/a	5	-999	n/a	n/a	-999	2	[0, 0, 0]	n/a	0	1	0	n/a	n/a	0.0	0	0	0	PAL2	1	R1031M
312.412	0.25	349908	TEST_ORIENT	n/a	n/a	BARN	ROOF	4	4	ROOF	BARN	1	2	[0, 0, 0]	n/a	0	1	0	n/a	n/a	0.0	0	0	0	PAL2	1	R1031M
313.295	4.0	350350	TEST_PROBE	n/a	wordpools/wordpool_EN.txt	BARN	ROOF	4	4	ROOF	BARN	1	2	[0, 0, 0]	n/a	0	1	0	n/a	n/a	0.0	0	0	0	PAL2	1	R1031M
313.296	1.115	350350	REC_START	n/a	n/a	n/a	n/a	4	-999	n/a	BARN	1	2	[0, 0, 0]	n/a	0	1	0	n/a	n/a	0.0	0	0	0	PAL2	1	R1031M
314.411	3.885	350908	REC_EVENT	1.115	n/a	BARN	ROOF	4	4	ROOF	BARN	1	2	[0, 0, 0]	n/a	0	1	0	n/a	n/a	0.0	0	0	0	PAL2	1	R1031M
318.296	0.017	352850	REC_END	n/a	n/a	n/a	n/a	4	-999	n/a	n/a	-999	2	[0, 0, 0]	n/a	0	1	0	n/a	n/a	0.0	0	0	0	PAL2	1	R1031M
318.313	0.25	352858	TEST_ORIENT	n/a	n/a	GRASS	TEETH	3	5	GRASS	TEETH	1	2	[0, 0, 0]	n/a	0	1	0	n/a	n/a	0.0	0	0	0	PAL2	1	R1031M
319.043	4.6	353223	STIM_ON	n/a	n/a	GRASS	TEETH	3	5	GRASS	TEETH	1	2	[0, 0, 0]	n/a	1	1	4600	LTD4	LTD5	1000.0	50	230	300	PAL2	1	R1031M
319.247	4.0	353325	TEST_PROBE	n/a	wordpools/wordpool_EN.txt	GRASS	TEETH	3	5	GRASS	TEETH	1	2	[0, 0, 0]	n/a	1	1	4600	LTD4	LTD5	1000.0	50	230	300	PAL2	1	R1031M
319.247	1.21	353325	REC_START	n/a	n/a	n/a	n/a	3	-999	n/a	TEETH	1	2	[0, 0, 0]	n/a	1	1	4600	LTD4	LTD5	1000.0	50	230	300	PAL2	1	R1031M
320.457	3.807	353930	REC_EVENT	1.21	n/a	GRASS	TEETH	3	5	GRASS	TEETH	1	2	[0, 0, 0]	n/a	1	1	4600	LTD4	LTD5	1000.0	50	230	300	PAL2	1	R1031M
324.264	0.017	355834	REC_END	n/a	n/a	n/a	n/a	3	-999	n/a	n/a	-999	2	[0, 0, 0]	n/a	0	1	0	n/a	n/a	0.0	0	0	0	PAL2	1	R1031M
324.281	0.25	355842	TEST_ORIENT	n/a	n/a	FOOD	BLUSH	2	6	FOOD	n/a	0	2	[0, 0, 0]	n/a	0	1	0	n/a	n/a	0.0	0	0	0	PAL2	1	R1031M
325.298	4.0	356351	TEST_PROBE	n/a	wordpools/wordpool_EN.txt	FOOD	BLUSH	2	6	FOOD	n/a	0	2	[0, 0, 0]	n/a	0	1	0	n/a	n/a	0.0	0	0	0	PAL2	1	R1031M
325.298	3.575	356351	REC_START	n/a	n/a	n/a	n/a	2	-999	n/a	n/a	0	2	[0, 0, 0]	n/a	0	1	0	n/a	n/a	0.0	0	0	0	PAL2	1	R1031M
328.873	1.442	358138	REC_EVENT	3.575	n/a	FOOD	BLUSH	2	6	FOOD	<>	0	2	[0, 0, 0]	n/a	0	1	0	n/a	n/a	0.0	0	0	0	PAL2	1	R1031M
330.315	1.874	358859	REC_END	n/a	n/a	n/a	n/a	2	-999	n/a	n/a	-999	2	[0, 0, 0]	n/a	0	1	0	n/a	n/a	0.0	0	0	0	PAL2	1	R1031M
332.189	10.445	359796	ENCODING_START	n/a	n/a	n/a	n/a	0	-999	n/a	n/a	-999	3	[0, 0, 0]	n/a	0	1	0	n/a	n/a	0.0	0	0	0	PAL2	1	R1031M
342.634	0.25	365018	STUDY_ORIENT	n/a	n/a	SOUP	MAIL	1	5	SOUP	n/a	0	3	[0, 0, 0]	n/a	0	1	0	n/a	n/a	0.0	0	0	0	PAL2	1	R1031M
343.517	4.0	365459	STUDY_PAIR	n/a	wordpools/wordpool_EN.txt	SOUP	MAIL	1	5	SOUP	n/a	0	3	[0, 0, 0]	n/a	0	1	0	n/a	n/a	0.0	0	0	0	PAL2	1	R1031M
348.535	0.25	367968	STUDY_ORIENT	n/a	n/a	FLUTE	FILM	2	6	FILM	FLUTE	1	3	[0, 0, 0]	n/a	0	1	0	n/a	n/a	0.0	0	0	0	PAL2	1	R1031M
349.403	4.0	368402	STUDY_PAIR	n/a	wordpools/wordpool_EN.txt	FLUTE	FILM	2	6	FILM	FLUTE	1	3	[0, 0, 0]	n/a	0	1	0	n/a	n/a	0.0	0	0	0	PAL2	1	R1031M
354.437	0.25	370919	STUDY_ORIENT	n/a	n/a	SIGN	LIP	3	3	SIGN	LIP	1	3	[0, 0, 0]	n/a	0	1	0	n/a	n/a	0.0	0	0	0	PAL2	1	R1031M
355.437	4.0	371419	STUDY_PAIR	n/a	wordpools/wordpool_EN.txt	SIGN	LIP	3	3	SIGN	LIP	1	3	[0, 0, 0]	n/a	0	1	0	n/a	n/a	0.0	0	0	0	PAL2	1	R1031M
360.454	0.25	373927	STUDY_ORIENT	n/a	n/a	WHALE	CUP	4	4	WHALE	CUP	1	3	[0, 0, 0]	n/a	0	1	0	n/a	n/a	0.0	0	0	0	PAL2	1	R1031M
361.438	4.0	374419	STUDY_PAIR	n/a	wordpools/wordpool_EN.txt	WHALE	CUP	4	4	WHALE	CUP	1	3	[0, 0, 0]	n/a	0	1	0	n/a	n/a	0.0	0	0	0	PAL2	1	R1031M
366.455	0.25	376927	STUDY_ORIENT	n/a	n/a	MOUSE	OAR	5	1	MOUSE	OAR	1	3	[0, 0, 0]	n/a	0	1	0	n/a	n/a	0.0	0	0	0	PAL2	1	R1031M
367.39	4.0	377394	STUDY_PAIR	n/a	wordpools/wordpool_EN.txt	MOUSE	OAR	5	1	MOUSE	OAR	1	3	[0, 0, 0]	n/a	0	1	0	n/a	n/a	0.0	0	0	0	PAL2	1	R1031M
372.424	0.25	379911	STUDY_ORIENT	n/a	n/a	PET	MOON	6	2	PET	MOON	1	3	[0, 0, 0]	n/a	0	1	0	n/a	n/a	0.0	0	0	0	PAL2	1	R1031M
373.391	4.0	380395	STUDY_PAIR	n/a	wordpools/wordpool_EN.txt	PET	MOON	6	2	PET	MOON	1	3	[0, 0, 0]	n/a	0	1	0	n/a	n/a	0.0	0	0	0	PAL2	1	R1031M
377.409	0.999	382403	START	n/a	n/a	n/a	n/a	-999	-999	n/a	n/a	-999	3	[-999, -999, -999]	n/a	0	1	0	n/a	n/a	0.0	0	0	0	PAL2	1	R1031M
378.408	0.017	382903	MATH_START	n/a	n/a	n/a	n/a	-999	-999	n/a	n/a	-999	3	[0, 0, 0]	n/a	0	1	0	n/a	n/a	0.0	0	0	0	PAL2	1	R1031M
378.425	3.384	382911	PROB	3.364	n/a	n/a	n/a	-999	-999	n/a	n/a	-999	3	[9, 9, 2]	20	0	1	0	n/a	n/a	0.0	0	0	0	PAL2	1	R1031M
381.809	2.551	384603	PROB	2.516	n/a	n/a	n/a	-999	-999	n/a	n/a	-999	3	[8, 8, 8]	24	0	1	0	n/a	n/a	0.0	0	0	0	PAL2	1	R1031M
384.36	2.667	385879	PROB	2.645	n/a	n/a	n/a	-999	-999	n/a	n/a	-999	3	[3, 4, 9]	16	0	1	0	n/a	n/a	0.0	0	0	0	PAL2	1	R1031M
387.027	2.449	387212	PROB	2.425	n/a	n/a	n/a	-999	-999	n/a	n/a	-999	3	[2, 8, 5]	15	0	1	0	n/a	n/a	0.0	0	0	0	PAL2	1	R1031M
389.476	2.435	388436	PROB	2.409	n/a	n/a	n/a	-999	-999	n/a	n/a	-999	3	[7, 1, 6]	14	0	1	0	n/a	n/a	0.0	0	0	0	PAL2	1	R1031M
391.911	2.6	389654	PROB	2.565	n/a	n/a	n/a	-999	-999	n/a	n/a	-999	3	[5, 2, 8]	15	0	1	0	n/a	n/a	0.0	0	0	0	PAL2	1	R1031M
394.511	2.284	390954	PROB	2.262	n/a	n/a	n/a	-999	-999	n/a	n/a	-999	3	[6, 5, 2]	13	0	1	0	n/a	n/a	0.0	0	0	0	PAL2	1	R1031M
396.795	2.498	392095	PROB	2.498	n/a	n/a	n/a	-999	-999	n/a	n/a	-999	3	[1, 1, 6]	8	0	1	0	n/a	n/a	0.0	0	0	0	PAL2	1	R1031M
399.293	0.003	393344	STOP	n/a	n/a	n/a	n/a	-999	-999	n/a	n/a	-999	3	[-999, -999, -999]	n/a	0	1	0	n/a	n/a	0.0	0	0	0	PAL2	1	R1031M
399.296	0.0	393346	MATH_END	n/a	n/a	n/a	n/a	-999	-999	n/a	n/a	-999	3	[0, 0, 0]	n/a	0	1	0	n/a	n/a	0.0	0	0	0	PAL2	1	R1031M
399.296	0.017	393346	TEST_START	n/a	n/a	n/a	n/a	-999	-999	n/a	n/a	-999	3	[0, 0, 0]	n/a	0	1	0	n/a	n/a	0.0	0	0	0	PAL2	1	R1031M
399.313	0.25	393354	TEST_ORIENT	n/a	n/a	MOUSE	OAR	5	1	MOUSE	OAR	1	3	[0, 0, 0]	n/a	0	1	0	n/a	n/a	0.0	0	0	0	PAL2	1	R1031M
400.163	4.0	393779	TEST_PROBE	n/a	wordpools/wordpool_EN.txt	MOUSE	OAR	5	1	MOUSE	OAR	1	3	[0, 0, 0]	n/a	0	1	0	n/a	n/a	0.0	0	0	0	PAL2	1	R1031M
400.164	1.912	393780	REC_START	n/a	n/a	n/a	n/a	5	-999	n/a	OAR	1	3	[0, 0, 0]	n/a	0	1	0	n/a	n/a	0.0	0	0	0	PAL2	1	R1031M
402.076	3.112	394736	REC_EVENT	1.912	n/a	MOUSE	OAR	5	1	MOUSE	OAR	1	3	[0, 0, 0]	n/a	0	1	0	n/a	n/a	0.0	0	0	0	PAL2	1	R1031M
405.188	0.009	396291	REC_END	n/a	n/a	n/a	n/a	5	-999	n/a	n/a	-999	3	[0, 0, 0]	n/a	0	1	0	n/a	n/a	0.0	0	0	0	PAL2	1	R1031M
405.197	0.25	396296	TEST_ORIENT	n/a	n/a	PET	MOON	6	2	PET	MOON	1	3	[0, 0, 0]	n/a	0	1	0	n/a	n/a	0.0	0	0	0	PAL2	1	R1031M
405.896	4.6	396645	STIM_ON	n/a	n/a	PET	MOON	6	2	PET	MOON	1	3	[0, 0, 0]	n/a	1	1	4600	LTD4	LTD5	1000.0	50	230	300	PAL2	1	R1031M
406.097	4.0	396746	TEST_PROBE	n/a	wordpools/wordpool_EN.txt	PET	MOON	6	2	PET	MOON	1	3	[0, 0, 0]	n/a	1	1	4600	LTD4	LTD5	1000.0	50	230	300	PAL2	1	R1031M
406.098	3.485	396746	REC_START	n/a	n/a	n/a	n/a	6	-999	n/a	MOON	1	3	[0, 0, 0]	n/a	1	1	4600	LTD4	LTD5	1000.0	50	230	300	PAL2	1	R1031M
409.583	1.523	398489	REC_EVENT	3.485	n/a	PET	MOON	6	2	PET	MOON	1	3	[0, 0, 0]	n/a	1	1	4600	LTD4	LTD5	1000.0	50	230	300	PAL2	1	R1031M
411.106	0.009	399250	REC_END	n/a	n/a	n/a	n/a	6	-999	n/a	n/a	-999	3	[0, 0, 0]	n/a	0	1	0	n/a	n/a	0.0	0	0	0	PAL2	1	R1031M
411.115	0.25	399255	TEST_ORIENT	n/a	n/a	SIGN	LIP	3	3	SIGN	LIP	1	3	[0, 0, 0]	n/a	0	1	0	n/a	n/a	0.0	0	0	0	PAL2	1	R1031M
412.115	4.0	399755	TEST_PROBE	n/a	wordpools/wordpool_EN.txt	SIGN	LIP	3	3	SIGN	LIP	1	3	[0, 0, 0]	n/a	0	1	0	n/a	n/a	0.0	0	0	0	PAL2	1	R1031M
412.116	2.198	399755	REC_START	n/a	n/a	n/a	n/a	3	-999	n/a	LIP	1	3	[0, 0, 0]	n/a	0	1	0	n/a	n/a	0.0	0	0	0	PAL2	1	R1031M
414.314	2.81	400854	REC_EVENT	2.198	n/a	SIGN	LIP	3	3	SIGN	LIP	1	3	[0, 0, 0]	n/a	0	1	0	n/a	n/a	0.0	0	0	0	PAL2	1	R1031M
417.124	0.009	402259	REC_END	n/a	n/a	n/a	n/a	3	-999	n/a	n/a	-999	3	[0, 0, 0]	n/a	0	1	0	n/a	n/a	0.0	0	0	0	PAL2	1	R1031M
417.133	0.25	402263	TEST_ORIENT	n/a	n/a	WHALE	CUP	4	4	WHALE	CUP	1	3	[0, 0, 0]	n/a	0	1	0	n/a	n/a	0.0	0	0	0	PAL2	1	R1031M
417.749	4.6	402571	STIM_ON	n/a	n/a	WHALE	CUP	4	4	WHALE	CUP	1	3	[0, 0, 0]	n/a	1	1	4600	LTD4	LTD5	1000.0	50	230	300	PAL2	1	R1031M
417.966	4.0	402680	TEST_PROBE	n/a	wordpools/wordpool_EN.txt	WHALE	CUP	4	4	WHALE	CUP	1	3	[0, 0, 0]	n/a	1	1	4600	LTD4	LTD5	1000.0	50	230	300	PAL2	1	R1031M
417.967	1.333	402680	REC_START	n/a	n/a	n/a	n/a	4	-999	n/a	CUP	1	3	[0, 0, 0]	n/a	1	1	4600	LTD4	LTD5	1000.0	50	230	300	PAL2	1	R1031M
419.3	3.675	403347	REC_EVENT	1.333	n/a	WHALE	CUP	4	4	WHALE	CUP	1	3	[0, 0, 0]	n/a	1	1	4600	LTD4	LTD5	1000.0	50	230	300	PAL2	1	R1031M
422.975	0.009	405184	REC_END	n/a	n/a	n/a	n/a	4	-999	n/a	n/a	-999	3	[0, 0, 0]	n/a	0	1	0	n/a	n/a	0.0	0	0	0	PAL2	1	R1031M
422.984	0.25	405189	TEST_ORIENT	n/a	n/a	SOUP	MAIL	1	5	SOUP	n/a	0	3	[0, 0, 0]	n/a	0	1	0	n/a	n/a	0.0	0	0	0	PAL2	1	R1031M
423.851	0.0	405622	REC_START	n/a	n/a	n/a	n/a	1	-999	n/a	n/a	0	3	[0, 0, 0]	n/a	0	1	0	n/a	n/a	0.0	0	0	0	PAL2	1	R1031M
423.851	4.0	405622	TEST_PROBE	n/a	wordpools/wordpool_EN.txt	SOUP	MAIL	1	5	SOUP	n/a	0	3	[0, 0, 0]	n/a	0	1	0	n/a	n/a	0.0	0	0	0	PAL2	1	R1031M
427.217	1.651	407305	REC_EVENT	3.366	n/a	SOUP	MAIL	1	5	SOUP	<>	0	3	[0, 0, 0]	n/a	0	1	0	n/a	n/a	0.0	0	0	0	PAL2	1	R1031M
428.868	0.017	408130	REC_END	n/a	n/a	n/a	n/a	1	-999	n/a	n/a	-999	3	[0, 0, 0]	n/a	0	1	0	n/a	n/a	0.0	0	0	0	PAL2	1	R1031M
428.885	0.25	408139	TEST_ORIENT	n/a	n/a	FLUTE	FILM	2	6	FILM	FLUTE	1	3	[0, 0, 0]	n/a	0	1	0	n/a	n/a	0.0	0	0	0	PAL2	1	R1031M
429.602	4.6	408497	STIM_ON	n/a	n/a	FLUTE	FILM	2	6	FILM	FLUTE	1	3	[0, 0, 0]	n/a	1	1	4600	LTD4	LTD5	1000.0	50	230	300	PAL2	1	R1031M
429.819	4.0	408606	TEST_PROBE	n/a	wordpools/wordpool_EN.txt	FLUTE	FILM	2	6	FILM	FLUTE	1	3	[0, 0, 0]	n/a	1	1	4600	LTD4	LTD5	1000.0	50	230	300	PAL2	1	R1031M
429.819	2.666	408606	REC_START	n/a	n/a	n/a	n/a	2	-999	n/a	FLUTE	1	3	[0, 0, 0]	n/a	1	1	4600	LTD4	LTD5	1000.0	50	230	300	PAL2	1	R1031M
432.485	2.004	409939	REC_EVENT	2.666	n/a	FLUTE	FILM	2	6	FILM	FLUTE	1	3	[0, 0, 0]	n/a	1	1	4600	LTD4	LTD5	1000.0	50	230	300	PAL2	1	R1031M
434.489	0.347	410940	REC_EVENT	4.67	n/a	FLUTE	FILM	2	6	FILM	FLUTE	1	3	[0, 0, 0]	n/a	0	1	0	n/a	n/a	0.0	0	0	0	PAL2	1	R1031M
434.836	2.897	411114	REC_END	n/a	n/a	n/a	n/a	2	-999	n/a	n/a	-999	3	[0, 0, 0]	n/a	0	1	0	n/a	n/a	0.0	0	0	0	PAL2	1	R1031M
437.733	10.439	412562	ENCODING_START	n/a	n/a	n/a	n/a	0	-999	n/a	n/a	-999	4	[0, 0, 0]	n/a	0	0	0	n/a	n/a	0.0	0	0	0	PAL2	1	R1031M
448.172	0.25	417781	STUDY_ORIENT	n/a	n/a	FUR	FLOOR	1	5	FLOOR	FUR	1	4	[0, 0, 0]	n/a	0	0	0	n/a	n/a	0.0	0	0	0	PAL2	1	R1031M
449.106	4.0	418248	STUDY_PAIR	n/a	wordpools/wordpool_EN.txt	FUR	FLOOR	1	5	FLOOR	FUR	1	4	[0, 0, 0]	n/a	0	0	0	n/a	n/a	0.0	0	0	0	PAL2	1	R1031M
454.14	0.25	420765	STUDY_ORIENT	n/a	n/a	JAR	SNOW	2	4	SNOW	JAW	0	4	[0, 0, 0]	n/a	0	0	0	n/a	n/a	0.0	0	0	0	PAL2	1	R1031M
455.107	4.0	421248	STUDY_PAIR	n/a	wordpools/wordpool_EN.txt	JAR	SNOW	2	4	SNOW	JAW	0	4	[0, 0, 0]	n/a	0	0	0	n/a	n/a	0.0	0	0	0	PAL2	1	R1031M
460.125	0.25	423757	STUDY_ORIENT	n/a	n/a	NET	SHEEP	3	1	SHEEP	GNAT	0	4	[0, 0, 0]	n/a	0	0	0	n/a	n/a	0.0	0	0	0	PAL2	1	R1031M
461.108	4.0	424249	STUDY_PAIR	n/a	wordpools/wordpool_EN.txt	NET	SHEEP	3	1	SHEEP	GNAT	0	4	[0, 0, 0]	n/a	0	0	0	n/a	n/a	0.0	0	0	0	PAL2	1	R1031M
466.126	0.25	426757	STUDY_ORIENT	n/a	n/a	CHIEF	SHOE	4	6	SHOE	n/a	0	4	[0, 0, 0]	n/a	0	0	0	n/a	n/a	0.0	0	0	0	PAL2	1	R1031M
466.943	4.0	427166	STUDY_PAIR	n/a	wordpools/wordpool_EN.txt	CHIEF	SHOE	4	6	SHOE	n/a	0	4	[0, 0, 0]	n/a	0	0	0	n/a	n/a	0.0	0	0	0	PAL2	1	R1031M
471.977	0.25	429683	STUDY_ORIENT	n/a	n/a	PEN	TOAD	5	3	TOAD	n/a	0	4	[0, 0, 0]	n/a	0	0	0	n/a	n/a	0.0	0	0	0	PAL2	1	R1031M
472.944	4.0	430166	STUDY_PAIR	n/a	wordpools/wordpool_EN.txt	PEN	TOAD	5	3	TOAD	n/a	0	4	[0, 0, 0]	n/a	0	0	0	n/a	n/a	0.0	0	0	0	PAL2	1	R1031M
477.978	0.25	432683	STUDY_ORIENT	n/a	n/a	SMOKE	BRUSH	6	2	BRUSH	SMOKE	1	4	[0, 0, 0]	n/a	0	0	0	n/a	n/a	0.0	0	0	0	PAL2	1	R1031M
478.778	4.0	433083	STUDY_PAIR	n/a	wordpools/wordpool_EN.txt	SMOKE	BRUSH	6	2	BRUSH	SMOKE	1	4	[0, 0, 0]	n/a	0	0	0	n/a	n/a	0.0	0	0	0	PAL2	1	R1031M
482.779	1.0	435083	START	n/a	n/a	n/a	n/a	-999	-999	n/a	n/a	-999	4	[-999, -999, -999]	n/a	0	0	0	n/a	n/a	0.0	0	0	0	PAL2	1	R1031M
483.779	0.017	435583	MATH_START	n/a	n/a	n/a	n/a	-999	-999	n/a	n/a	-999	4	[0, 0, 0]	n/a	0	0	0	n/a	n/a	0.0	0	0	0	PAL2	1	R1031M
483.796	3.084	435591	PROB	3.049	n/a	n/a	n/a	-999	-999	n/a	n/a	-999	4	[8, 6, 7]	21	0	0	0	n/a	n/a	0.0	0	0	0	PAL2	1	R1031M
486.88	3.034	437133	PROB	3.005	n/a	n/a	n/a	-999	-999	n/a	n/a	-999	4	[4, 4, 1]	9	0	0	0	n/a	n/a	0.0	0	0	0	PAL2	1	R1031M
489.914	2.934	438650	PROB	2.907	n/a	n/a	n/a	-999	-999	n/a	n/a	-999	4	[9, 3, 6]	18	0	0	0	n/a	n/a	0.0	0	0	0	PAL2	1	R1031M
492.848	2.3	440117	PROB	2.277	n/a	n/a	n/a	-999	-999	n/a	n/a	-999	4	[2, 3, 1]	6	0	0	0	n/a	n/a	0.0	0	0	0	PAL2	1	R1031M
495.148	2.684	441267	PROB	2.649	n/a	n/a	n/a	-999	-999	n/a	n/a	-999	4	[8, 3, 8]	19	0	0	0	n/a	n/a	0.0	0	0	0	PAL2	1	R1031M
497.832	2.616	442609	PROB	2.589	n/a	n/a	n/a	-999	-999	n/a	n/a	-999	4	[5, 7, 8]	20	0	0	0	n/a	n/a	0.0	0	0	0	PAL2	1	R1031M
500.448	2.557	443917	PROB	2.557	n/a	n/a	n/a	-999	-999	n/a	n/a	-999	4	[7, 6, 5]	18	0	0	0	n/a	n/a	0.0	0	0	0	PAL2	1	R1031M
503.005	0.012	445195	STOP	n/a	n/a	n/a	n/a	-999	-999	n/a	n/a	-999	4	[-999, -999, -999]	n/a	0	0	0	n/a	n/a	0.0	0	0	0	PAL2	1	R1031M
503.017	0.0	445201	MATH_END	n/a	n/a	n/a	n/a	-999	-999	n/a	n/a	-999	4	[0, 0, 0]	n/a	0	0	0	n/a	n/a	0.0	0	0	0	PAL2	1	R1031M
503.017	0.016	445201	TEST_START	n/a	n/a	n/a	n/a	-999	-999	n/a	n/a	-999	4	[0, 0, 0]	n/a	0	0	0	n/a	n/a	0.0	0	0	0	PAL2	1	R1031M
503.033	0.25	445209	TEST_ORIENT	n/a	n/a	NET	SHEEP	3	1	SHEEP	GNAT	0	4	[0, 0, 0]	n/a	0	0	0	n/a	n/a	0.0	0	0	0	PAL2	1	R1031M
503.983	4.0	445684	TEST_PROBE	n/a	wordpools/wordpool_EN.txt	NET	SHEEP	3	1	SHEEP	GNAT	0	4	[0, 0, 0]	n/a	0	0	0	n/a	n/a	0.0	0	0	0	PAL2	1	R1031M
503.984	2.139	445684	REC_START	n/a	n/a	n/a	n/a	3	-999	n/a	GNAT	0	4	[0, 0, 0]	n/a	0	0	0	n/a	n/a	0.0	0	0	0	PAL2	1	R1031M
506.123	2.869	446754	REC_EVENT	2.139	n/a	NET	SHEEP	3	1	SHEEP	GNAT	0	4	[0, 0, 0]	n/a	0	0	0	n/a	n/a	0.0	0	0	0	PAL2	1	R1031M
508.992	0.009	448188	REC_END	n/a	n/a	n/a	n/a	3	-999	n/a	n/a	-999	4	[0, 0, 0]	n/a	0	0	0	n/a	n/a	0.0	0	0	0	PAL2	1	R1031M
509.001	0.25	448193	TEST_ORIENT	n/a	n/a	SMOKE	BRUSH	6	2	BRUSH	SMOKE	1	4	[0, 0, 0]	n/a	0	0	0	n/a	n/a	0.0	0	0	0	PAL2	1	R1031M
509.935	4.0	448660	TEST_PROBE	n/a	wordpools/wordpool_EN.txt	SMOKE	BRUSH	6	2	BRUSH	SMOKE	1	4	[0, 0, 0]	n/a	0	0	0	n/a	n/a	0.0	0	0	0	PAL2	1	R1031M
509.935	1.385	448660	REC_START	n/a	n/a	n/a	n/a	6	-999	n/a	SMOKE	1	4	[0, 0, 0]	n/a	0	0	0	n/a	n/a	0.0	0	0	0	PAL2	1	R1031M
511.32	3.632	449352	REC_EVENT	1.385	n/a	SMOKE	BRUSH	6	2	BRUSH	SMOKE	1	4	[0, 0, 0]	n/a	0	0	0	n/a	n/a	0.0	0	0	0	PAL2	1	R1031M
514.952	0.017	451168	REC_END	n/a	n/a	n/a	n/a	6	-999	n/a	n/a	-999	4	[0, 0, 0]	n/a	0	0	0	n/a	n/a	0.0	0	0	0	PAL2	1	R1031M
514.969	0.25	451176	TEST_ORIENT	n/a	n/a	PEN	TOAD	5	3	TOAD	n/a	0	4	[0, 0, 0]	n/a	0	0	0	n/a	n/a	0.0	0	0	0	PAL2	1	R1031M
515.886	4.0	451635	TEST_PROBE	n/a	wordpools/wordpool_EN.txt	PEN	TOAD	5	3	TOAD	n/a	0	4	[0, 0, 0]	n/a	0	0	0	n/a	n/a	0.0	0	0	0	PAL2	1	R1031M
515.887	1.857	451635	REC_START	n/a	n/a	n/a	n/a	5	-999	n/a	n/a	0	4	[0, 0, 0]	n/a	0	0	0	n/a	n/a	0.0	0	0	0	PAL2	1	R1031M
517.744	3.167	452564	REC_EVENT	1.857	n/a	PEN	TOAD	5	3	TOAD	<>	0	4	[0, 0, 0]	n/a	0	0	0	n/a	n/a	0.0	0	0	0	PAL2	1	R1031M
520.911	0.009	454147	REC_END	n/a	n/a	n/a	n/a	5	-999	n/a	n/a	-999	4	[0, 0, 0]	n/a	0	0	0	n/a	n/a	0.0	0	0	0	PAL2	1	R1031M
520.92	0.25	454152	TEST_ORIENT	n/a	n/a	JAR	SNOW	2	4	SNOW	JAW	0	4	[0, 0, 0]	n/a	0	0	0	n/a	n/a	0.0	0	0	0	PAL2	1	R1031M
521.82	4.0	454602	TEST_PROBE	n/a	wordpools/wordpool_EN.txt	JAR	SNOW	2	4	SNOW	JAW	0	4	[0, 0, 0]	n/a	0	0	0	n/a	n/a	0.0	0	0	0	PAL2	1	R1031M
521.821	1.513	454602	REC_START	n/a	n/a	n/a	n/a	2	-999	n/a	JAW	0	4	[0, 0, 0]	n/a	0	0	0	n/a	n/a	0.0	0	0	0	PAL2	1	R1031M
523.334	3.495	455358	REC_EVENT	1.513	n/a	JAR	SNOW	2	4	SNOW	JAW	0	4	[0, 0, 0]	n/a	0	0	0	n/a	n/a	0.0	0	0	0	PAL2	1	R1031M
526.829	0.009	457106	REC_END	n/a	n/a	n/a	n/a	2	-999	n/a	n/a	-999	4	[0, 0, 0]	n/a	0	0	0	n/a	n/a	0.0	0	0	0	PAL2	1	R1031M
526.838	0.25	457110	TEST_ORIENT	n/a	n/a	FUR	FLOOR	1	5	FLOOR	FUR	1	4	[0, 0, 0]	n/a	0	0	0	n/a	n/a	0.0	0	0	0	PAL2	1	R1031M
527.838	4.0	457610	TEST_PROBE	n/a	wordpools/wordpool_EN.txt	FUR	FLOOR	1	5	FLOOR	FUR	1	4	[0, 0, 0]	n/a	0	0	0	n/a	n/a	0.0	0	0	0	PAL2	1	R1031M
527.839	3.439	457611	REC_START	n/a	n/a	n/a	n/a	1	-999	n/a	FUR	1	4	[0, 0, 0]	n/a	0	0	0	n/a	n/a	0.0	0	0	0	PAL2	1	R1031M
531.278	1.561	459330	REC_EVENT	3.439	n/a	FUR	FLOOR	1	5	FLOOR	FUR	1	4	[0, 0, 0]	n/a	0	0	0	n/a	n/a	0.0	0	0	0	PAL2	1	R1031M
532.839	0.017	460110	REC_END	n/a	n/a	n/a	n/a	1	-999	n/a	n/a	-999	4	[0, 0, 0]	n/a	0	0	0	n/a	n/a	0.0	0	0	0	PAL2	1	R1031M
532.856	0.25	460119	TEST_ORIENT	n/a	n/a	CHIEF	SHOE	4	6	SHOE	n/a	0	4	[0, 0, 0]	n/a	0	0	0	n/a	n/a	0.0	0	0	0	PAL2	1	R1031M
533.655	4.0	460518	TEST_PROBE	n/a	wordpools/wordpool_EN.txt	CHIEF	SHOE	4	6	SHOE	n/a	0	4	[0, 0, 0]	n/a	0	0	0	n/a	n/a	0.0	0	0	0	PAL2	1	R1031M
533.656	4.109	460519	REC_START	n/a	n/a	n/a	n/a	4	-999	n/a	n/a	0	4	[0, 0, 0]	n/a	0	0	0	n/a	n/a	0.0	0	0	0	PAL2	1	R1031M
537.765	0.908	462573	REC_EVENT	4.109	n/a	CHIEF	SHOE	4	6	SHOE	<>	0	4	[0, 0, 0]	n/a	0	0	0	n/a	n/a	0.0	0	0	0	PAL2	1	R1031M
538.673	2.035	463027	REC_END	n/a	n/a	n/a	n/a	4	-999	n/a	n/a	-999	4	[0, 0, 0]	n/a	0	0	0	n/a	n/a	0.0	0	0	0	PAL2	1	R1031M
540.708	10.452	464045	ENCODING_START	n/a	n/a	n/a	n/a	0	-999	n/a	n/a	-999	5	[0, 0, 0]	n/a	0	1	0	n/a	n/a	0.0	0	0	0	PAL2	1	R1031M
551.16	0.25	469270	STUDY_ORIENT	n/a	n/a	HOUSE	MOTH	1	3	MOTH	HOUSE	1	5	[0, 0, 0]	n/a	0	1	0	n/a	n/a	0.0	0	0	0	PAL2	1	R1031M
552.16	4.0	469770	STUDY_PAIR	n/a	wordpools/wordpool_EN.txt	HOUSE	MOTH	1	3	MOTH	HOUSE	1	5	[0, 0, 0]	n/a	0	1	0	n/a	n/a	0.0	0	0	0	PAL2	1	R1031M
557.194	0.25	472287	STUDY_ORIENT	n/a	n/a	SWAMP	BOARD	2	2	SWAMP	BOARD	1	5	[0, 0, 0]	n/a	0	1	0	n/a	n/a	0.0	0	0	0	PAL2	1	R1031M
558.128	4.0	472754	STUDY_PAIR	n/a	wordpools/wordpool_EN.txt	SWAMP	BOARD	2	2	SWAMP	BOARD	1	5	[0, 0, 0]	n/a	0	1	0	n/a	n/a	0.0	0	0	0	PAL2	1	R1031M
563.162	0.25	475270	STUDY_ORIENT	n/a	n/a	MUG	CLOCK	3	1	CLOCK	n/a	0	5	[0, 0, 0]	n/a	0	1	0	n/a	n/a	0.0	0	0	0	PAL2	1	R1031M
564.146	4.0	475762	STUDY_PAIR	n/a	wordpools/wordpool_EN.txt	MUG	CLOCK	3	1	CLOCK	n/a	0	5	[0, 0, 0]	n/a	0	1	0	n/a	n/a	0.0	0	0	0	PAL2	1	R1031M
569.18	0.25	478279	STUDY_ORIENT	n/a	n/a	DITCH	BENCH	4	4	DITCH	BENCH	1	5	[0, 0, 0]	n/a	0	1	0	n/a	n/a	0.0	0	0	0	PAL2	1	R1031M
570.013	4.0	478696	STUDY_PAIR	n/a	wordpools/wordpool_EN.txt	DITCH	BENCH	4	4	DITCH	BENCH	1	5	[0, 0, 0]	n/a	0	1	0	n/a	n/a	0.0	0	0	0	PAL2	1	R1031M
575.031	0.25	481204	STUDY_ORIENT	n/a	n/a	FACE	RAKE	5	5	FACE	RAKE	1	5	[0, 0, 0]	n/a	0	1	0	n/a	n/a	0.0	0	0	0	PAL2	1	R1031M
576.048	4.0	481713	STUDY_PAIR	n/a	wordpools/wordpool_EN.txt	FACE	RAKE	5	5	FACE	RAKE	1	5	[0, 0, 0]	n/a	0	1	0	n/a	n/a	0.0	0	0	0	PAL2	1	R1031M
581.082	0.25	484230	STUDY_ORIENT	n/a	n/a	HILL	OAK	6	6	OAK	n/a	0	5	[0, 0, 0]	n/a	0	1	0	n/a	n/a	0.0	0	0	0	PAL2	1	R1031M
582.049	4.0	484713	STUDY_PAIR	n/a	wordpools/wordpool_EN.txt	HILL	OAK	6	6	OAK	n/a	0	5	[0, 0, 0]	n/a	0	1	0	n/a	n/a	0.0	0	0	0	PAL2	1	R1031M
586.051	0.999	486714	START	n/a	n/a	n/a	n/a	-999	-999	n/a	n/a	-999	5	[-999, -999, -999]	n/a	0	1	0	n/a	n/a	0.0	0	0	0	PAL2	1	R1031M
587.05	0.017	487213	MATH_START	n/a	n/a	n/a	n/a	-999	-999	n/a	n/a	-999	5	[0, 0, 0]	n/a	0	1	0	n/a	n/a	0.0	0	0	0	PAL2	1	R1031M
587.067	2.95	487222	PROB	2.922	n/a	n/a	n/a	-999	-999	n/a	n/a	-999	5	[1, 9, 3]	13	0	1	0	n/a	n/a	0.0	0	0	0	PAL2	1	R1031M
590.017	2.7	488697	PROB	2.667	n/a	n/a	n/a	-999	-999	n/a	n/a	-999	5	[7, 6, 2]	15	0	1	0	n/a	n/a	0.0	0	0	0	PAL2	1	R1031M
592.717	2.301	490046	PROB	2.28	n/a	n/a	n/a	-999	-999	n/a	n/a	-999	5	[6, 4, 8]	18	0	1	0	n/a	n/a	0.0	0	0	0	PAL2	1	R1031M
595.018	3.617	491197	PROB	3.594	n/a	n/a	n/a	-999	-999	n/a	n/a	-999	5	[2, 2, 4]	8	0	1	0	n/a	n/a	0.0	0	0	0	PAL2	1	R1031M
598.635	2.568	493005	PROB	2.546	n/a	n/a	n/a	-999	-999	n/a	n/a	-999	5	[4, 8, 8]	20	0	1	0	n/a	n/a	0.0	0	0	0	PAL2	1	R1031M
601.203	2.534	494289	PROB	2.505	n/a	n/a	n/a	-999	-999	n/a	n/a	-999	5	[4, 5, 3]	12	0	1	0	n/a	n/a	0.0	0	0	0	PAL2	1	R1031M
603.737	2.715	495556	PROB	2.715	n/a	n/a	n/a	-999	-999	n/a	n/a	-999	5	[3, 4, 3]	10	0	1	0	n/a	n/a	0.0	0	0	0	PAL2	1	R1031M
606.452	0.018	496913	STOP	n/a	n/a	n/a	n/a	-999	-999	n/a	n/a	-999	5	[-999, -999, -999]	n/a	0	1	0	n/a	n/a	0.0	0	0	0	PAL2	1	R1031M
606.47	0.0	496922	MATH_END	n/a	n/a	n/a	n/a	-999	-999	n/a	n/a	-999	5	[0, 0, 0]	n/a	0	1	0	n/a	n/a	0.0	0	0	0	PAL2	1	R1031M
606.47	0.016	496922	TEST_START	n/a	n/a	n/a	n/a	-999	-999	n/a	n/a	-999	5	[0, 0, 0]	n/a	0	1	0	n/a	n/a	0.0	0	0	0	PAL2	1	R1031M
606.486	0.25	496930	TEST_ORIENT	n/a	n/a	MUG	CLOCK	3	1	CLOCK	n/a	0	5	[0, 0, 0]	n/a	0	1	0	n/a	n/a	0.0	0	0	0	PAL2	1	R1031M
607.321	0.0	497348	REC_START	n/a	n/a	n/a	n/a	3	-999	n/a	n/a	0	5	[0, 0, 0]	n/a	0	1	0	n/a	n/a	0.0	0	0	0	PAL2	1	R1031M
607.321	4.0	497348	TEST_PROBE	n/a	wordpools/wordpool_EN.txt	MUG	CLOCK	3	1	CLOCK	n/a	0	5	[0, 0, 0]	n/a	0	1	0	n/a	n/a	0.0	0	0	0	PAL2	1	R1031M
611.129	1.209	499252	REC_EVENT	3.808	n/a	MUG	CLOCK	3	1	CLOCK	<>	0	5	[0, 0, 0]	n/a	0	1	0	n/a	n/a	0.0	0	0	0	PAL2	1	R1031M
612.338	0.017	499856	REC_END	n/a	n/a	n/a	n/a	3	-999	n/a	n/a	-999	5	[0, 0, 0]	n/a	0	1	0	n/a	n/a	0.0	0	0	0	PAL2	1	R1031M
612.355	0.25	499864	TEST_ORIENT	n/a	n/a	SWAMP	BOARD	2	2	SWAMP	BOARD	1	5	[0, 0, 0]	n/a	0	1	0	n/a	n/a	0.0	0	0	0	PAL2	1	R1031M
613.021	4.6	500197	STIM_ON	n/a	n/a	SWAMP	BOARD	2	2	SWAMP	BOARD	1	5	[0, 0, 0]	n/a	1	1	4600	LTD4	LTD5	1000.0	50	230	300	PAL2	1	R1031M
613.239	4.0	500306	TEST_PROBE	n/a	wordpools/wordpool_EN.txt	SWAMP	BOARD	2	2	SWAMP	BOARD	1	5	[0, 0, 0]	n/a	1	1	4600	LTD4	LTD5	1000.0	50	230	300	PAL2	1	R1031M
613.239	2.8	500306	REC_START	n/a	n/a	n/a	n/a	2	-999	n/a	BOARD	1	5	[0, 0, 0]	n/a	1	1	4600	LTD4	LTD5	1000.0	50	230	300	PAL2	1	R1031M
616.039	2.217	501706	REC_EVENT	2.8	n/a	SWAMP	BOARD	2	2	SWAMP	BOARD	1	5	[0, 0, 0]	n/a	1	1	4600	LTD4	LTD5	1000.0	50	230	300	PAL2	1	R1031M
618.256	0.017	502815	REC_END	n/a	n/a	n/a	n/a	2	-999	n/a	n/a	-999	5	[0, 0, 0]	n/a	0	1	0	n/a	n/a	0.0	0	0	0	PAL2	1	R1031M
618.273	0.25	502823	TEST_ORIENT	n/a	n/a	HOUSE	MOTH	1	3	MOTH	HOUSE	1	5	[0, 0, 0]	n/a	0	1	0	n/a	n/a	0.0	0	0	0	PAL2	1	R1031M
619.206	4.0	503290	TEST_PROBE	n/a	wordpools/wordpool_EN.txt	HOUSE	MOTH	1	3	MOTH	HOUSE	1	5	[0, 0, 0]	n/a	0	1	0	n/a	n/a	0.0	0	0	0	PAL2	1	R1031M
619.207	1.839	503290	REC_START	n/a	n/a	n/a	n/a	1	-999	n/a	HOUSE	1	5	[0, 0, 0]	n/a	0	1	0	n/a	n/a	0.0	0	0	0	PAL2	1	R1031M
621.046	3.169	504209	REC_EVENT	1.839	n/a	HOUSE	MOTH	1	3	MOTH	HOUSE	1	5	[0, 0, 0]	n/a	0	1	0	n/a	n/a	0.0	0	0	0	PAL2	1	R1031M
624.215	0.009	505794	REC_END	n/a	n/a	n/a	n/a	1	-999	n/a	n/a	-999	5	[0, 0, 0]	n/a	0	1	0	n/a	n/a	0.0	0	0	0	PAL2	1	R1031M
624.224	0.25	505798	TEST_ORIENT	n/a	n/a	DITCH	BENCH	4	4	DITCH	BENCH	1	5	[0, 0, 0]	n/a	0	1	0	n/a	n/a	0.0	0	0	0	PAL2	1	R1031M
625.054	4.6	506213	STIM_ON	n/a	n/a	DITCH	BENCH	4	4	DITCH	BENCH	1	5	[0, 0, 0]	n/a	1	1	4600	LTD4	LTD5	1000.0	50	230	300	PAL2	1	R1031M
625.258	4.0	506315	TEST_PROBE	n/a	wordpools/wordpool_EN.txt	DITCH	BENCH	4	4	DITCH	BENCH	1	5	[0, 0, 0]	n/a	1	1	4600	LTD4	LTD5	1000.0	50	230	300	PAL2	1	R1031M
625.258	1.898	506315	REC_START	n/a	n/a	n/a	n/a	4	-999	n/a	BENCH	1	5	[0, 0, 0]	n/a	1	1	4600	LTD4	LTD5	1000.0	50	230	300	PAL2	1	R1031M
627.156	3.119	507264	REC_EVENT	1.898	n/a	DITCH	BENCH	4	4	DITCH	BENCH	1	5	[0, 0, 0]	n/a	1	1	4600	LTD4	LTD5	1000.0	50	230	300	PAL2	1	R1031M
630.275	0.017	508824	REC_END	n/a	n/a	n/a	n/a	4	-999	n/a	n/a	-999	5	[0, 0, 0]	n/a	0	1	0	n/a	n/a	0.0	0	0	0	PAL2	1	R1031M
630.292	0.25	508832	TEST_ORIENT	n/a	n/a	FACE	RAKE	5	5	FACE	RAKE	1	5	[0, 0, 0]	n/a	0	1	0	n/a	n/a	0.0	0	0	0	PAL2	1	R1031M
631.109	4.0	509240	TEST_PROBE	n/a	wordpools/wordpool_EN.txt	FACE	RAKE	5	5	FACE	RAKE	1	5	[0, 0, 0]	n/a	0	1	0	n/a	n/a	0.0	0	0	0	PAL2	1	R1031M
631.109	1.878	509240	REC_START	n/a	n/a	n/a	n/a	5	-999	n/a	RAKE	1	5	[0, 0, 0]	n/a	0	1	0	n/a	n/a	0.0	0	0	0	PAL2	1	R1031M
632.987	3.139	510179	REC_EVENT	1.878	n/a	FACE	RAKE	5	5	FACE	RAKE	1	5	[0, 0, 0]	n/a	0	1	0	n/a	n/a	0.0	0	0	0	PAL2	1	R1031M
636.126	0.017	511749	REC_END	n/a	n/a	n/a	n/a	5	-999	n/a	n/a	-999	5	[0, 0, 0]	n/a	0	1	0	n/a	n/a	0.0	0	0	0	PAL2	1	R1031M
636.143	0.25	511757	TEST_ORIENT	n/a	n/a	HILL	OAK	6	6	OAK	n/a	0	5	[0, 0, 0]	n/a	0	1	0	n/a	n/a	0.0	0	0	0	PAL2	1	R1031M
636.878	4.6	512125	STIM_ON	n/a	n/a	HILL	OAK	6	6	OAK	n/a	0	5	[0, 0, 0]	n/a	1	1	4600	LTD4	LTD5	1000.0	50	230	300	PAL2	1	R1031M
637.093	4.0	512232	TEST_PROBE	n/a	wordpools/wordpool_EN.txt	HILL	OAK	6	6	OAK	n/a	0	5	[0, 0, 0]	n/a	1	1	4600	LTD4	LTD5	1000.0	50	230	300	PAL2	1	R1031M
637.094	3.25	512233	REC_START	n/a	n/a	n/a	n/a	6	-999	n/a	n/a	0	5	[0, 0, 0]	n/a	1	1	4600	LTD4	LTD5	1000.0	50	230	300	PAL2	1	R1031M
640.344	1.758	513858	REC_EVENT	3.25	n/a	HILL	OAK	6	6	OAK	<>	0	5	[0, 0, 0]	n/a	1	1	4600	LTD4	LTD5	1000.0	50	230	300	PAL2	1	R1031M
642.102	2.167	514736	REC_END	n/a	n/a	n/a	n/a	6	-999	n/a	n/a	-999	5	[0, 0, 0]	n/a	0	1	0	n/a	n/a	0.0	0	0	0	PAL2	1	R1031M
644.269	10.444	515820	ENCODING_START	n/a	n/a	n/a	n/a	0	-999	n/a	n/a	-999	6	[0, 0, 0]	n/a	0	1	0	n/a	n/a	0.0	0	0	0	PAL2	1	R1031M
654.713	0.25	521041	STUDY_ORIENT	n/a	n/a	GEESE	PLATE	1	5	GEESE	PLATE	1	6	[0, 0, 0]	n/a	0	1	0	n/a	n/a	0.0	0	0	0	PAL2	1	R1031M
655.663	4.0	521516	STUDY_PAIR	n/a	wordpools/wordpool_EN.txt	GEESE	PLATE	1	5	GEESE	PLATE	1	6	[0, 0, 0]	n/a	0	1	0	n/a	n/a	0.0	0	0	0	PAL2	1	R1031M
660.697	0.25	524033	STUDY_ORIENT	n/a	n/a	CORN	SEAL	2	6	SEAL	CORN	1	6	[0, 0, 0]	n/a	0	1	0	n/a	n/a	0.0	0	0	0	PAL2	1	R1031M
661.498	4.6	524433	STIM_ON	n/a	n/a	CORN	SEAL	2	6	SEAL	CORN	1	6	[0, 0, 0]	n/a	1	1	4600	LTD4	LTD5	1000.0	50	230	300	PAL2	1	R1031M
661.714	4.0	524541	STUDY_PAIR	n/a	wordpools/wordpool_EN.txt	CORN	SEAL	2	6	SEAL	CORN	1	6	[0, 0, 0]	n/a	1	1	4600	LTD4	LTD5	1000.0	50	230	300	PAL2	1	R1031M
666.749	0.25	527059	STUDY_ORIENT	n/a	n/a	ROSE	TOE	3	3	TOE	ROSE	1	6	[0, 0, 0]	n/a	0	1	0	n/a	n/a	0.0	0	0	0	PAL2	1	R1031M
667.599	4.0	527484	STUDY_PAIR	n/a	wordpools/wordpool_EN.txt	ROSE	TOE	3	3	TOE	ROSE	1	6	[0, 0, 0]	n/a	0	1	0	n/a	n/a	0.0	0	0	0	PAL2	1	R1031M
672.633	0.25	530000	STUDY_ORIENT	n/a	n/a	PEACH	YARD	4	4	YARD	PEACH	1	6	[0, 0, 0]	n/a	0	1	0	n/a	n/a	0.0	0	0	0	PAL2	1	R1031M
673.334	4.6	530351	STIM_ON	n/a	n/a	PEACH	YARD	4	4	YARD	PEACH	1	6	[0, 0, 0]	n/a	1	1	4600	LTD4	LTD5	1000.0	50	230	300	PAL2	1	R1031M
673.55	4.0	530459	STUDY_PAIR	n/a	wordpools/wordpool_EN.txt	PEACH	YARD	4	4	YARD	PEACH	1	6	[0, 0, 0]	n/a	1	1	4600	LTD4	LTD5	1000.0	50	230	300	PAL2	1	R1031M
678.584	0.25	532976	STUDY_ORIENT	n/a	n/a	PIN	WING	5	1	PIN	WING	1	6	[0, 0, 0]	n/a	0	1	0	n/a	n/a	0.0	0	0	0	PAL2	1	R1031M
679.435	4.0	533401	STUDY_PAIR	n/a	wordpools/wordpool_EN.txt	PIN	WING	5	1	PIN	WING	1	6	[0, 0, 0]	n/a	0	1	0	n/a	n/a	0.0	0	0	0	PAL2	1	R1031M
684.469	0.25	535918	STUDY_ORIENT	n/a	n/a	SHIELD	CROWN	6	2	SHIELD	CROWN	1	6	[0, 0, 0]	n/a	0	1	0	n/a	n/a	0.0	0	0	0	PAL2	1	R1031M
685.217	4.6	536292	STIM_ON	n/a	n/a	SHIELD	CROWN	6	2	SHIELD	CROWN	1	6	[0, 0, 0]	n/a	1	1	4600	LTD4	LTD5	1000.0	50	230	300	PAL2	1	R1031M
685.42	4.0	536393	STUDY_PAIR	n/a	wordpools/wordpool_EN.txt	SHIELD	CROWN	6	2	SHIELD	CROWN	1	6	[0, 0, 0]	n/a	1	1	4600	LTD4	LTD5	1000.0	50	230	300	PAL2	1	R1031M
689.438	0.999	538402	START	n/a	n/a	n/a	n/a	-999	-999	n/a	n/a	-999	6	[-999, -999, -999]	n/a	0	1	0	n/a	n/a	0.0	0	0	0	PAL2	1	R1031M
690.437	0.016	538901	MATH_START	n/a	n/a	n/a	n/a	-999	-999	n/a	n/a	-999	6	[0, 0, 0]	n/a	0	1	0	n/a	n/a	0.0	0	0	0	PAL2	1	R1031M
690.453	3.251	538909	PROB	3.231	n/a	n/a	n/a	-999	-999	n/a	n/a	-999	6	[9, 4, 6]	19	0	1	0	n/a	n/a	0.0	0	0	0	PAL2	1	R1031M
693.704	2.75	540535	PROB	2.725	n/a	n/a	n/a	-999	-999	n/a	n/a	-999	6	[7, 5, 9]	19	0	1	0	n/a	n/a	0.0	0	0	0	PAL2	1	R1031M
696.454	2.885	541910	PROB	2.855	n/a	n/a	n/a	-999	-999	n/a	n/a	-999	6	[5, 1, 1]	7	0	1	0	n/a	n/a	0.0	0	0	0	PAL2	1	R1031M
699.339	2.551	543352	PROB	2.522	n/a	n/a	n/a	-999	-999	n/a	n/a	-999	6	[9, 6, 5]	20	0	1	0	n/a	n/a	0.0	0	0	0	PAL2	1	R1031M
701.89	2.632	544627	PROB	2.61	n/a	n/a	n/a	-999	-999	n/a	n/a	-999	6	[4, 4, 2]	10	0	1	0	n/a	n/a	0.0	0	0	0	PAL2	1	R1031M
704.522	2.619	545943	PROB	2.587	n/a	n/a	n/a	-999	-999	n/a	n/a	-999	6	[1, 9, 3]	13	0	1	0	n/a	n/a	0.0	0	0	0	PAL2	1	R1031M
707.141	3.359	547253	PROB	3.359	n/a	n/a	n/a	-999	-999	n/a	n/a	-999	6	[8, 3, 2]	13	0	1	0	n/a	n/a	0.0	0	0	0	PAL2	1	R1031M
710.5	0.007	548932	STOP	n/a	n/a	n/a	n/a	-999	-999	n/a	n/a	-999	6	[-999, -999, -999]	n/a	0	1	0	n/a	n/a	0.0	0	0	0	PAL2	1	R1031M
710.507	0.0	548935	MATH_END	n/a	n/a	n/a	n/a	-999	-999	n/a	n/a	-999	6	[0, 0, 0]	n/a	0	1	0	n/a	n/a	0.0	0	0	0	PAL2	1	R1031M
710.507	0.017	548935	TEST_START	n/a	n/a	n/a	n/a	-999	-999	n/a	n/a	-999	6	[0, 0, 0]	n/a	0	1	0	n/a	n/a	0.0	0	0	0	PAL2	1	R1031M
710.524	0.25	548944	TEST_ORIENT	n/a	n/a	PIN	WING	5	1	PIN	WING	1	6	[0, 0, 0]	n/a	0	1	0	n/a	n/a	0.0	0	0	0	PAL2	1	R1031M
711.541	4.0	549452	TEST_PROBE	n/a	wordpools/wordpool_EN.txt	PIN	WING	5	1	PIN	WING	1	6	[0, 0, 0]	n/a	0	1	0	n/a	n/a	0.0	0	0	0	PAL2	1	R1031M
711.541	1.14	549452	REC_START	n/a	n/a	n/a	n/a	5	-999	n/a	WING	1	6	[0, 0, 0]	n/a	0	1	0	n/a	n/a	0.0	0	0	0	PAL2	1	R1031M
712.681	3.877	550022	REC_EVENT	1.14	n/a	PIN	WING	5	1	PIN	WING	1	6	[0, 0, 0]	n/a	0	1	0	n/a	n/a	0.0	0	0	0	PAL2	1	R1031M
716.558	0.017	551961	REC_END	n/a	n/a	n/a	n/a	5	-999	n/a	n/a	-999	6	[0, 0, 0]	n/a	0	1	0	n/a	n/a	0.0	0	0	0	PAL2	1	R1031M
716.575	0.25	551969	TEST_ORIENT	n/a	n/a	SHIELD	CROWN	6	2	SHIELD	CROWN	1	6	[0, 0, 0]	n/a	0	1	0	n/a	n/a	0.0	0	0	0	PAL2	1	R1031M
717.558	4.0	552461	TEST_PROBE	n/a	wordpools/wordpool_EN.txt	SHIELD	CROWN	6	2	SHIELD	CROWN	1	6	[0, 0, 0]	n/a	0	1	0	n/a	n/a	0.0	0	0	0	PAL2	1	R1031M
717.559	1.285	552461	REC_START	n/a	n/a	n/a	n/a	6	-999	n/a	CROWN	1	6	[0, 0, 0]	n/a	0	1	0	n/a	n/a	0.0	0	0	0	PAL2	1	R1031M
718.844	3.723	553104	REC_EVENT	1.285	n/a	SHIELD	CROWN	6	2	SHIELD	CROWN	1	6	[0, 0, 0]	n/a	0	1	0	n/a	n/a	0.0	0	0	0	PAL2	1	R1031M
722.567	0.009	554965	REC_END	n/a	n/a	n/a	n/a	6	-999	n/a	n/a	-999	6	[0, 0, 0]	n/a	0	1	0	n/a	n/a	0.0	0	0	0	PAL2	1	R1031M
722.576	0.25	554969	TEST_ORIENT	n/a	n/a	ROSE	TOE	3	3	TOE	ROSE	1	6	[0, 0, 0]	n/a	0	1	0	n/a	n/a	0.0	0	0	0	PAL2	1	R1031M
723.593	0.0	555478	REC_START	n/a	n/a	n/a	n/a	3	-999	n/a	ROSE	1	6	[0, 0, 0]	n/a	0	1	0	n/a	n/a	0.0	0	0	0	PAL2	1	R1031M
723.593	4.0	555478	TEST_PROBE	n/a	wordpools/wordpool_EN.txt	ROSE	TOE	3	3	TOE	ROSE	1	6	[0, 0, 0]	n/a	0	1	0	n/a	n/a	0.0	0	0	0	PAL2	1	R1031M
724.723	3.887	556043	REC_EVENT	1.13	n/a	ROSE	TOE	3	3	TOE	ROSE	1	6	[0, 0, 0]	n/a	0	1	0	n/a	n/a	0.0	0	0	0	PAL2	1	R1031M
728.61	0.017	557986	REC_END	n/a	n/a	n/a	n/a	3	-999	n/a	n/a	-999	6	[0, 0, 0]	n/a	0	1	0	n/a	n/a	0.0	0	0	0	PAL2	1	R1031M
728.627	0.25	557995	TEST_ORIENT	n/a	n/a	PEACH	YARD	4	4	YARD	PEACH	1	6	[0, 0, 0]	n/a	0	1	0	n/a	n/a	0.0	0	0	0	PAL2	1	R1031M
729.461	4.0	558411	TEST_PROBE	n/a	wordpools/wordpool_EN.txt	PEACH	YARD	4	4	YARD	PEACH	1	6	[0, 0, 0]	n/a	0	1	0	n/a	n/a	0.0	0	0	0	PAL2	1	R1031M
729.461	1.816	558411	REC_START	n/a	n/a	n/a	n/a	4	-999	n/a	PEACH	1	6	[0, 0, 0]	n/a	0	1	0	n/a	n/a	0.0	0	0	0	PAL2	1	R1031M
731.277	3.201	559319	REC_EVENT	1.816	n/a	PEACH	YARD	4	4	YARD	PEACH	1	6	[0, 0, 0]	n/a	0	1	0	n/a	n/a	0.0	0	0	0	PAL2	1	R1031M
734.478	0.017	560920	REC_END	n/a	n/a	n/a	n/a	4	-999	n/a	n/a	-999	6	[0, 0, 0]	n/a	0	1	0	n/a	n/a	0.0	0	0	0	PAL2	1	R1031M
734.495	0.25	560928	TEST_ORIENT	n/a	n/a	GEESE	PLATE	1	5	GEESE	PLATE	1	6	[0, 0, 0]	n/a	0	1	0	n/a	n/a	0.0	0	0	0	PAL2	1	R1031M
735.346	4.0	561354	TEST_PROBE	n/a	wordpools/wordpool_EN.txt	GEESE	PLATE	1	5	GEESE	PLATE	1	6	[0, 0, 0]	n/a	0	1	0	n/a	n/a	0.0	0	0	0	PAL2	1	R1031M
735.347	1.206	561354	REC_START	n/a	n/a	n/a	n/a	1	-999	n/a	PLATE	1	6	[0, 0, 0]	n/a	0	1	0	n/a	n/a	0.0	0	0	0	PAL2	1	R1031M
736.553	3.802	561957	REC_EVENT	1.206	n/a	GEESE	PLATE	1	5	GEESE	PLATE	1	6	[0, 0, 0]	n/a	0	1	0	n/a	n/a	0.0	0	0	0	PAL2	1	R1031M
740.355	0.009	563858	REC_END	n/a	n/a	n/a	n/a	1	-999	n/a	n/a	-999	6	[0, 0, 0]	n/a	0	1	0	n/a	n/a	0.0	0	0	0	PAL2	1	R1031M
740.364	0.25	563862	TEST_ORIENT	n/a	n/a	CORN	SEAL	2	6	SEAL	CORN	1	6	[0, 0, 0]	n/a	0	1	0	n/a	n/a	0.0	0	0	0	PAL2	1	R1031M
741.231	4.0	564296	TEST_PROBE	n/a	wordpools/wordpool_EN.txt	CORN	SEAL	2	6	SEAL	CORN	1	6	[0, 0, 0]	n/a	0	1	0	n/a	n/a	0.0	0	0	0	PAL2	1	R1031M
741.232	1.551	564296	REC_START	n/a	n/a	n/a	n/a	2	-999	n/a	CORN	1	6	[0, 0, 0]	n/a	0	1	0	n/a	n/a	0.0	0	0	0	PAL2	1	R1031M
742.783	3.472	565072	REC_EVENT	1.551	n/a	CORN	SEAL	2	6	SEAL	CORN	1	6	[0, 0, 0]	n/a	0	1	0	n/a	n/a	0.0	0	0	0	PAL2	1	R1031M
746.255	1.582	566808	REC_END	n/a	n/a	n/a	n/a	2	-999	n/a	n/a	-999	6	[0, 0, 0]	n/a	0	1	0	n/a	n/a	0.0	0	0	0	PAL2	1	R1031M
747.837	10.447	567599	ENCODING_START	n/a	n/a	n/a	n/a	0	-999	n/a	n/a	-999	7	[0, 0, 0]	n/a	0	1	0	n/a	n/a	0.0	0	0	0	PAL2	1	R1031M
758.284	0.25	572822	STUDY_ORIENT	n/a	n/a	BREAD	EGG	1	5	EGG	BREAD	1	7	[0, 0, 0]	n/a	0	1	0	n/a	n/a	0.0	0	0	0	PAL2	1	R1031M
759.101	4.0	573230	STUDY_PAIR	n/a	wordpools/wordpool_EN.txt	BREAD	EGG	1	5	EGG	BREAD	1	7	[0, 0, 0]	n/a	0	1	0	n/a	n/a	0.0	0	0	0	PAL2	1	R1031M
764.135	0.25	575747	STUDY_ORIENT	n/a	n/a	DEER	ARM	2	6	ARM	DEER	1	7	[0, 0, 0]	n/a	0	1	0	n/a	n/a	0.0	0	0	0	PAL2	1	R1031M
765.119	4.0	576239	STUDY_PAIR	n/a	wordpools/wordpool_EN.txt	DEER	ARM	2	6	ARM	DEER	1	7	[0, 0, 0]	n/a	0	1	0	n/a	n/a	0.0	0	0	0	PAL2	1	R1031M
770.153	0.25	578755	STUDY_ORIENT	n/a	n/a	JEEP	TREE	3	1	TREE	JEEP	1	7	[0, 0, 0]	n/a	0	1	0	n/a	n/a	0.0	0	0	0	PAL2	1	R1031M
771.07	4.0	579214	STUDY_PAIR	n/a	wordpools/wordpool_EN.txt	JEEP	TREE	3	1	TREE	JEEP	1	7	[0, 0, 0]	n/a	0	1	0	n/a	n/a	0.0	0	0	0	PAL2	1	R1031M
776.088	0.25	581723	STUDY_ORIENT	n/a	n/a	BANK	WOOD	4	2	BANK	n/a	0	7	[0, 0, 0]	n/a	0	1	0	n/a	n/a	0.0	0	0	0	PAL2	1	R1031M
776.988	4.0	582173	STUDY_PAIR	n/a	wordpools/wordpool_EN.txt	BANK	WOOD	4	2	BANK	n/a	0	7	[0, 0, 0]	n/a	0	1	0	n/a	n/a	0.0	0	0	0	PAL2	1	R1031M
782.022	0.25	584689	STUDY_ORIENT	n/a	n/a	DART	CLOUD	5	3	CLOUD	DART	1	7	[0, 0, 0]	n/a	0	1	0	n/a	n/a	0.0	0	0	0	PAL2	1	R1031M
782.806	4.0	585081	STUDY_PAIR	n/a	wordpools/wordpool_EN.txt	DART	CLOUD	5	3	CLOUD	DART	1	7	[0, 0, 0]	n/a	0	1	0	n/a	n/a	0.0	0	0	0	PAL2	1	R1031M
787.84	0.25	587598	STUDY_ORIENT	n/a	n/a	BOOK	SWORD	6	4	BOOK	n/a	0	7	[0, 0, 0]	n/a	0	1	0	n/a	n/a	0.0	0	0	0	PAL2	1	R1031M
788.656	4.0	588006	STUDY_PAIR	n/a	wordpools/wordpool_EN.txt	BOOK	SWORD	6	4	BOOK	n/a	0	7	[0, 0, 0]	n/a	0	1	0	n/a	n/a	0.0	0	0	0	PAL2	1	R1031M
792.674	1.0	590015	START	n/a	n/a	n/a	n/a	-999	-999	n/a	n/a	-999	7	[-999, -999, -999]	n/a	0	1	0	n/a	n/a	0.0	0	0	0	PAL2	1	R1031M
793.674	0.016	590515	MATH_START	n/a	n/a	n/a	n/a	-999	-999	n/a	n/a	-999	7	[0, 0, 0]	n/a	0	1	0	n/a	n/a	0.0	0	0	0	PAL2	1	R1031M
793.69	3.152	590523	PROB	3.131	n/a	n/a	n/a	-999	-999	n/a	n/a	-999	7	[4, 7, 9]	20	0	1	0	n/a	n/a	0.0	0	0	0	PAL2	1	R1031M
796.842	3.217	592099	PROB	3.187	n/a	n/a	n/a	-999	-999	n/a	n/a	-999	7	[5, 8, 6]	19	0	1	0	n/a	n/a	0.0	0	0	0	PAL2	1	R1031M
800.059	2.55	593707	PROB	2.521	n/a	n/a	n/a	-999	-999	n/a	n/a	-999	7	[2, 8, 6]	16	0	1	0	n/a	n/a	0.0	0	0	0	PAL2	1	R1031M
802.609	2.601	594982	PROB	2.572	n/a	n/a	n/a	-999	-999	n/a	n/a	-999	7	[5, 9, 4]	18	0	1	0	n/a	n/a	0.0	0	0	0	PAL2	1	R1031M
805.21	2.617	596282	PROB	2.595	n/a	n/a	n/a	-999	-999	n/a	n/a	-999	7	[8, 1, 7]	16	0	1	0	n/a	n/a	0.0	0	0	0	PAL2	1	R1031M
807.827	2.7	597590	PROB	2.665	n/a	n/a	n/a	-999	-999	n/a	n/a	-999	7	[9, 1, 2]	12	0	1	0	n/a	n/a	0.0	0	0	0	PAL2	1	R1031M
810.527	2.574	598940	PROB	2.574	n/a	n/a	n/a	-999	-999	n/a	n/a	-999	7	[9, 1, 6]	16	0	1	0	n/a	n/a	0.0	0	0	0	PAL2	1	R1031M
813.101	0.011	600227	STOP	n/a	n/a	n/a	n/a	-999	-999	n/a	n/a	-999	7	[-999, -999, -999]	n/a	0	1	0	n/a	n/a	0.0	0	0	0	PAL2	1	R1031M
813.112	0.0	600233	MATH_END	n/a	n/a	n/a	n/a	-999	-999	n/a	n/a	-999	7	[0, 0, 0]	n/a	0	1	0	n/a	n/a	0.0	0	0	0	PAL2	1	R1031M
813.112	0.017	600233	TEST_START	n/a	n/a	n/a	n/a	-999	-999	n/a	n/a	-999	7	[0, 0, 0]	n/a	0	1	0	n/a	n/a	0.0	0	0	0	PAL2	1	R1031M
813.129	0.25	600241	TEST_ORIENT	n/a	n/a	JEEP	TREE	3	1	TREE	JEEP	1	7	[0, 0, 0]	n/a	0	1	0	n/a	n/a	0.0	0	0	0	PAL2	1	R1031M
813.782	4.6	600568	STIM_ON	n/a	n/a	JEEP	TREE	3	1	TREE	JEEP	1	7	[0, 0, 0]	n/a	1	1	4600	LTD4	LTD5	1000.0	50	230	300	PAL2	1	R1031M
813.995	4.0	600674	TEST_PROBE	n/a	wordpools/wordpool_EN.txt	JEEP	TREE	3	1	TREE	JEEP	1	7	[0, 0, 0]	n/a	1	1	4600	LTD4	LTD5	1000.0	50	230	300	PAL2	1	R1031M
813.996	3.43	600675	REC_START	n/a	n/a	n/a	n/a	3	-999	n/a	JEEP	1	7	[0, 0, 0]	n/a	1	1	4600	LTD4	LTD5	1000.0	50	230	300	PAL2	1	R1031M
817.426	1.578	602390	REC_EVENT	3.43	n/a	JEEP	TREE	3	1	TREE	JEEP	1	7	[0, 0, 0]	n/a	1	1	4600	LTD4	LTD5	1000.0	50	230	300	PAL2	1	R1031M
819.004	0.009	603178	REC_END	n/a	n/a	n/a	n/a	3	-999	n/a	n/a	-999	7	[0, 0, 0]	n/a	0	1	0	n/a	n/a	0.0	0	0	0	PAL2	1	R1031M
819.013	0.25	603183	TEST_ORIENT	n/a	n/a	BANK	WOOD	4	2	BANK	n/a	0	7	[0, 0, 0]	n/a	0	1	0	n/a	n/a	0.0	0	0	0	PAL2	1	R1031M
819.98	4.0	603666	TEST_PROBE	n/a	wordpools/wordpool_EN.txt	BANK	WOOD	4	2	BANK	n/a	0	7	[0, 0, 0]	n/a	0	1	0	n/a	n/a	0.0	0	0	0	PAL2	1	R1031M
819.98	4.272	603666	REC_START	n/a	n/a	n/a	n/a	4	-999	n/a	n/a	0	7	[0, 0, 0]	n/a	0	1	0	n/a	n/a	0.0	0	0	0	PAL2	1	R1031M
824.252	0.745	605802	REC_EVENT	4.272	n/a	BANK	WOOD	4	2	BANK	<>	0	7	[0, 0, 0]	n/a	0	1	0	n/a	n/a	0.0	0	0	0	PAL2	1	R1031M
824.997	0.017	606175	REC_END	n/a	n/a	n/a	n/a	4	-999	n/a	n/a	-999	7	[0, 0, 0]	n/a	0	1	0	n/a	n/a	0.0	0	0	0	PAL2	1	R1031M
825.014	0.25	606183	TEST_ORIENT	n/a	n/a	DART	CLOUD	5	3	CLOUD	DART	1	7	[0, 0, 0]	n/a	0	1	0	n/a	n/a	0.0	0	0	0	PAL2	1	R1031M
825.781	4.6	606567	STIM_ON	n/a	n/a	DART	CLOUD	5	3	CLOUD	DART	1	7	[0, 0, 0]	n/a	1	1	4600	LTD4	LTD5	1000.0	50	230	300	PAL2	1	R1031M
825.998	4.0	606675	TEST_PROBE	n/a	wordpools/wordpool_EN.txt	DART	CLOUD	5	3	CLOUD	DART	1	7	[0, 0, 0]	n/a	1	1	4600	LTD4	LTD5	1000.0	50	230	300	PAL2	1	R1031M
825.998	1.598	606675	REC_START	n/a	n/a	n/a	n/a	5	-999	n/a	DART	1	7	[0, 0, 0]	n/a	1	1	4600	LTD4	LTD5	1000.0	50	230	300	PAL2	1	R1031M
827.596	3.419	607474	REC_EVENT	1.598	n/a	DART	CLOUD	5	3	CLOUD	DART	1	7	[0, 0, 0]	n/a	1	1	4600	LTD4	LTD5	1000.0	50	230	300	PAL2	1	R1031M
831.015	0.017	609183	REC_END	n/a	n/a	n/a	n/a	5	-999	n/a	n/a	-999	7	[0, 0, 0]	n/a	0	1	0	n/a	n/a	0.0	0	0	0	PAL2	1	R1031M
831.032	0.25	609192	TEST_ORIENT	n/a	n/a	BOOK	SWORD	6	4	BOOK	n/a	0	7	[0, 0, 0]	n/a	0	1	0	n/a	n/a	0.0	0	0	0	PAL2	1	R1031M
831.999	4.0	609675	TEST_PROBE	n/a	wordpools/wordpool_EN.txt	BOOK	SWORD	6	4	BOOK	n/a	0	7	[0, 0, 0]	n/a	0	1	0	n/a	n/a	0.0	0	0	0	PAL2	1	R1031M
831.999	3.274	609675	REC_START	n/a	n/a	n/a	n/a	6	-999	n/a	n/a	0	7	[0, 0, 0]	n/a	0	1	0	n/a	n/a	0.0	0	0	0	PAL2	1	R1031M
835.273	1.743	611312	REC_EVENT	3.274	n/a	BOOK	SWORD	6	4	BOOK	<>	0	7	[0, 0, 0]	n/a	0	1	0	n/a	n/a	0.0	0	0	0	PAL2	1	R1031M
837.016	0.017	612184	REC_END	n/a	n/a	n/a	n/a	6	-999	n/a	n/a	-999	7	[0, 0, 0]	n/a	0	1	0	n/a	n/a	0.0	0	0	0	PAL2	1	R1031M
837.033	0.25	612192	TEST_ORIENT	n/a	n/a	BREAD	EGG	1	5	EGG	BREAD	1	7	[0, 0, 0]	n/a	0	1	0	n/a	n/a	0.0	0	0	0	PAL2	1	R1031M
837.827	4.6	612589	STIM_ON	n/a	n/a	BREAD	EGG	1	5	EGG	BREAD	1	7	[0, 0, 0]	n/a	1	1	4600	LTD4	LTD5	1000.0	50	230	300	PAL2	1	R1031M
838.033	4.0	612692	TEST_PROBE	n/a	wordpools/wordpool_EN.txt	BREAD	EGG	1	5	EGG	BREAD	1	7	[0, 0, 0]	n/a	1	1	4600	LTD4	LTD5	1000.0	50	230	300	PAL2	1	R1031M
838.034	1.575	612692	REC_START	n/a	n/a	n/a	n/a	1	-999	n/a	BREAD	1	7	[0, 0, 0]	n/a	1	1	4600	LTD4	LTD5	1000.0	50	230	300	PAL2	1	R1031M
839.609	3.433	613480	REC_EVENT	1.575	n/a	BREAD	EGG	1	5	EGG	BREAD	1	7	[0, 0, 0]	n/a	1	1	4600	LTD4	LTD5	1000.0	50	230	300	PAL2	1	R1031M
843.042	0.009	615196	REC_END	n/a	n/a	n/a	n/a	1	-999	n/a	n/a	-999	7	[0, 0, 0]	n/a	0	1	0	n/a	n/a	0.0	0	0	0	PAL2	1	R1031M
843.051	0.25	615201	TEST_ORIENT	n/a	n/a	DEER	ARM	2	6	ARM	DEER	1	7	[0, 0, 0]	n/a	0	1	0	n/a	n/a	0.0	0	0	0	PAL2	1	R1031M
843.851	4.0	615601	TEST_PROBE	n/a	wordpools/wordpool_EN.txt	DEER	ARM	2	6	ARM	DEER	1	7	[0, 0, 0]	n/a	0	1	0	n/a	n/a	0.0	0	0	0	PAL2	1	R1031M
843.852	1.138	615601	REC_START	n/a	n/a	n/a	n/a	2	-999	n/a	DEER	1	7	[0, 0, 0]	n/a	0	1	0	n/a	n/a	0.0	0	0	0	PAL2	1	R1031M
844.99	3.87	616170	REC_EVENT	1.138	n/a	DEER	ARM	2	6	ARM	DEER	1	7	[0, 0, 0]	n/a	0	1	0	n/a	n/a	0.0	0	0	0	PAL2	1	R1031M
848.86	7.656	618105	REC_END	n/a	n/a	n/a	n/a	2	-999	n/a	n/a	-999	7	[0, 0, 0]	n/a	0	1	0	n/a	n/a	0.0	0	0	0	PAL2	1	R1031M
856.516	10.44	621933	ENCODING_START	n/a	n/a	n/a	n/a	0	-999	n/a	n/a	-999	8	[0, 0, 0]	n/a	0	1	0	n/a	n/a	0.0	0	0	0	PAL2	1	R1031M
866.956	0.25	627152	STUDY_ORIENT	n/a	n/a	FARM	CART	1	5	CART	FARM	1	8	[0, 0, 0]	n/a	0	1	0	n/a	n/a	0.0	0	0	0	PAL2	1	R1031M
867.695	4.6	627521	STIM_ON	n/a	n/a	FARM	CART	1	5	CART	FARM	1	8	[0, 0, 0]	n/a	1	1	4600	LTD4	LTD5	1000.0	50	230	300	PAL2	1	R1031M
867.906	4.0	627627	STUDY_PAIR	n/a	wordpools/wordpool_EN.txt	FARM	CART	1	5	CART	FARM	1	8	[0, 0, 0]	n/a	1	1	4600	LTD4	LTD5	1000.0	50	230	300	PAL2	1	R1031M
872.924	0.25	630136	STUDY_ORIENT	n/a	n/a	STONE	TOY	2	2	TOY	STONE	1	8	[0, 0, 0]	n/a	0	1	0	n/a	n/a	0.0	0	0	0	PAL2	1	R1031M
873.857	4.0	630602	STUDY_PAIR	n/a	wordpools/wordpool_EN.txt	STONE	TOY	2	2	TOY	STONE	1	8	[0, 0, 0]	n/a	0	1	0	n/a	n/a	0.0	0	0	0	PAL2	1	R1031M
878.875	0.25	633111	STUDY_ORIENT	n/a	n/a	BEAN	BEAK	3	3	BEAK	BEAN	1	8	[0, 0, 0]	n/a	0	1	0	n/a	n/a	0.0	0	0	0	PAL2	1	R1031M
879.472	4.6	633409	STIM_ON	n/a	n/a	BEAN	BEAK	3	3	BEAK	BEAN	1	8	[0, 0, 0]	n/a	1	1	4600	LTD4	LTD5	1000.0	50	230	300	PAL2	1	R1031M
879.674	4.0	633510	STUDY_PAIR	n/a	wordpools/wordpool_EN.txt	BEAN	BEAK	3	3	BEAK	BEAN	1	8	[0, 0, 0]	n/a	1	1	4600	LTD4	LTD5	1000.0	50	230	300	PAL2	1	R1031M
884.692	0.25	636019	STUDY_ORIENT	n/a	n/a	INK	CAGE	4	4	INK	CAGE	1	8	[0, 0, 0]	n/a	0	1	0	n/a	n/a	0.0	0	0	0	PAL2	1	R1031M
885.659	4.0	636503	STUDY_PAIR	n/a	wordpools/wordpool_EN.txt	INK	CAGE	4	4	INK	CAGE	1	8	[0, 0, 0]	n/a	0	1	0	n/a	n/a	0.0	0	0	0	PAL2	1	R1031M
890.693	0.25	639019	STUDY_ORIENT	n/a	n/a	STAR	JET	5	1	JET	n/a	0	8	[0, 0, 0]	n/a	0	1	0	n/a	n/a	0.0	0	0	0	PAL2	1	R1031M
891.254	4.6	639300	STIM_ON	n/a	n/a	STAR	JET	5	1	JET	n/a	0	8	[0, 0, 0]	n/a	1	1	4600	LTD4	LTD5	1000.0	50	230	300	PAL2	1	R1031M
891.46	4.0	639403	STUDY_PAIR	n/a	wordpools/wordpool_EN.txt	STAR	JET	5	1	JET	n/a	0	8	[0, 0, 0]	n/a	1	1	4600	LTD4	LTD5	1000.0	50	230	300	PAL2	1	R1031M
896.494	0.25	641919	STUDY_ORIENT	n/a	n/a	WOLF	HORSE	6	6	HORSE	WOLF	1	8	[0, 0, 0]	n/a	0	1	0	n/a	n/a	0.0	0	0	0	PAL2	1	R1031M
897.461	4.0	642403	STUDY_PAIR	n/a	wordpools/wordpool_EN.txt	WOLF	HORSE	6	6	HORSE	WOLF	1	8	[0, 0, 0]	n/a	0	1	0	n/a	n/a	0.0	0	0	0	PAL2	1	R1031M
901.479	1.0	644412	START	n/a	n/a	n/a	n/a	-999	-999	n/a	n/a	-999	8	[-999, -999, -999]	n/a	0	1	0	n/a	n/a	0.0	0	0	0	PAL2	1	R1031M
902.479	0.016	644912	MATH_START	n/a	n/a	n/a	n/a	-999	-999	n/a	n/a	-999	8	[0, 0, 0]	n/a	0	1	0	n/a	n/a	0.0	0	0	0	PAL2	1	R1031M
902.495	3.118	644920	PROB	3.085	n/a	n/a	n/a	-999	-999	n/a	n/a	-999	8	[3, 4, 5]	12	0	1	0	n/a	n/a	0.0	0	0	0	PAL2	1	R1031M
905.613	2.501	646479	PROB	2.472	n/a	n/a	n/a	-999	-999	n/a	n/a	-999	8	[4, 1, 7]	12	0	1	0	n/a	n/a	0.0	0	0	0	PAL2	1	R1031M
908.114	2.267	647729	PROB	2.235	n/a	n/a	n/a	-999	-999	n/a	n/a	-999	8	[5, 5, 3]	13	0	1	0	n/a	n/a	0.0	0	0	0	PAL2	1	R1031M
910.381	3.468	648862	PROB	3.432	n/a	n/a	n/a	-999	-999	n/a	n/a	-999	8	[6, 7, 8]	21	0	1	0	n/a	n/a	0.0	0	0	0	PAL2	1	R1031M
913.849	4.716	650596	PROB	4.683	n/a	n/a	n/a	-999	-999	n/a	n/a	-999	8	[3, 2, 9]	14	0	1	0	n/a	n/a	0.0	0	0	0	PAL2	1	R1031M
918.565	2.718	652954	PROB	2.688	n/a	n/a	n/a	-999	-999	n/a	n/a	-999	8	[3, 5, 7]	15	0	1	0	n/a	n/a	0.0	0	0	0	PAL2	1	R1031M
921.283	3.066	654313	PROB	3.066	n/a	n/a	n/a	-999	-999	n/a	n/a	-999	8	[3, 1, 2]	6	0	1	0	n/a	n/a	0.0	0	0	0	PAL2	1	R1031M
924.349	0.018	655846	STOP	n/a	n/a	n/a	n/a	-999	-999	n/a	n/a	-999	8	[-999, -999, -999]	n/a	0	1	0	n/a	n/a	0.0	0	0	0	PAL2	1	R1031M
924.367	0.0	655855	MATH_END	n/a	n/a	n/a	n/a	-999	-999	n/a	n/a	-999	8	[0, 0, 0]	n/a	0	1	0	n/a	n/a	0.0	0	0	0	PAL2	1	R1031M
924.367	0.017	655855	TEST_START	n/a	n/a	n/a	n/a	-999	-999	n/a	n/a	-999	8	[0, 0, 0]	n/a	0	1	0	n/a	n/a	0.0	0	0	0	PAL2	1	R1031M
924.384	0.25	655863	TEST_ORIENT	n/a	n/a	STAR	JET	5	1	JET	n/a	0	8	[0, 0, 0]	n/a	0	1	0	n/a	n/a	0.0	0	0	0	PAL2	1	R1031M
925.368	4.0	656355	TEST_PROBE	n/a	wordpools/wordpool_EN.txt	STAR	JET	5	1	JET	n/a	0	8	[0, 0, 0]	n/a	0	1	0	n/a	n/a	0.0	0	0	0	PAL2	1	R1031M
925.368	4.04	656355	REC_START	n/a	n/a	n/a	n/a	5	-999	n/a	n/a	0	8	[0, 0, 0]	n/a	0	1	0	n/a	n/a	0.0	0	0	0	PAL2	1	R1031M
929.408	0.977	658375	REC_EVENT	4.04	n/a	STAR	JET	5	1	JET	<>	0	8	[0, 0, 0]	n/a	0	1	0	n/a	n/a	0.0	0	0	0	PAL2	1	R1031M
930.385	0.017	658863	REC_END	n/a	n/a	n/a	n/a	5	-999	n/a	n/a	-999	8	[0, 0, 0]	n/a	0	1	0	n/a	n/a	0.0	0	0	0	PAL2	1	R1031M
930.402	0.25	658872	TEST_ORIENT	n/a	n/a	STONE	TOY	2	2	TOY	STONE	1	8	[0, 0, 0]	n/a	0	1	0	n/a	n/a	0.0	0	0	0	PAL2	1	R1031M
931.352	4.0	659347	TEST_PROBE	n/a	wordpools/wordpool_EN.txt	STONE	TOY	2	2	TOY	STONE	1	8	[0, 0, 0]	n/a	0	1	0	n/a	n/a	0.0	0	0	0	PAL2	1	R1031M
931.353	2.15	659347	REC_START	n/a	n/a	n/a	n/a	2	-999	n/a	STONE	1	8	[0, 0, 0]	n/a	0	1	0	n/a	n/a	0.0	0	0	0	PAL2	1	R1031M
933.503	2.858	660422	REC_EVENT	2.15	n/a	STONE	TOY	2	2	TOY	STONE	1	8	[0, 0, 0]	n/a	0	1	0	n/a	n/a	0.0	0	0	0	PAL2	1	R1031M
936.361	0.009	661851	REC_END	n/a	n/a	n/a	n/a	2	-999	n/a	n/a	-999	8	[0, 0, 0]	n/a	0	1	0	n/a	n/a	0.0	0	0	0	PAL2	1	R1031M
936.37	0.25	661855	TEST_ORIENT	n/a	n/a	BEAN	BEAK	3	3	BEAK	BEAN	1	8	[0, 0, 0]	n/a	0	1	0	n/a	n/a	0.0	0	0	0	PAL2	1	R1031M
937.337	4.0	662339	TEST_PROBE	n/a	wordpools/wordpool_EN.txt	BEAN	BEAK	3	3	BEAK	BEAN	1	8	[0, 0, 0]	n/a	0	1	0	n/a	n/a	0.0	0	0	0	PAL2	1	R1031M
937.337	1.955	662339	REC_START	n/a	n/a	n/a	n/a	3	-999	n/a	BEAN	1	8	[0, 0, 0]	n/a	0	1	0	n/a	n/a	0.0	0	0	0	PAL2	1	R1031M
939.292	3.062	663316	REC_EVENT	1.955	n/a	BEAN	BEAK	3	3	BEAK	BEAN	1	8	[0, 0, 0]	n/a	0	1	0	n/a	n/a	0.0	0	0	0	PAL2	1	R1031M
942.354	0.017	664847	REC_END	n/a	n/a	n/a	n/a	3	-999	n/a	n/a	-999	8	[0, 0, 0]	n/a	0	1	0	n/a	n/a	0.0	0	0	0	PAL2	1	R1031M
942.371	0.25	664856	TEST_ORIENT	n/a	n/a	INK	CAGE	4	4	INK	CAGE	1	8	[0, 0, 0]	n/a	0	1	0	n/a	n/a	0.0	0	0	0	PAL2	1	R1031M
943.405	4.0	665373	TEST_PROBE	n/a	wordpools/wordpool_EN.txt	INK	CAGE	4	4	INK	CAGE	1	8	[0, 0, 0]	n/a	0	1	0	n/a	n/a	0.0	0	0	0	PAL2	1	R1031M
943.405	1.761	665373	REC_START	n/a	n/a	n/a	n/a	4	-999	n/a	CAGE	1	8	[0, 0, 0]	n/a	0	1	0	n/a	n/a	0.0	0	0	0	PAL2	1	R1031M
945.166	3.256	666253	REC_EVENT	1.761	n/a	INK	CAGE	4	4	INK	CAGE	1	8	[0, 0, 0]	n/a	0	1	0	n/a	n/a	0.0	0	0	0	PAL2	1	R1031M
948.422	0.017	667881	REC_END	n/a	n/a	n/a	n/a	4	-999	n/a	n/a	-999	8	[0, 0, 0]	n/a	0	1	0	n/a	n/a	0.0	0	0	0	PAL2	1	R1031M
948.439	0.25	667889	TEST_ORIENT	n/a	n/a	FARM	CART	1	5	CART	FARM	1	8	[0, 0, 0]	n/a	0	1	0	n/a	n/a	0.0	0	0	0	PAL2	1	R1031M
949.439	4.0	668389	TEST_PROBE	n/a	wordpools/wordpool_EN.txt	FARM	CART	1	5	CART	FARM	1	8	[0, 0, 0]	n/a	0	1	0	n/a	n/a	0.0	0	0	0	PAL2	1	R1031M
949.439	1.49	668389	REC_START	n/a	n/a	n/a	n/a	1	-999	n/a	FARM	1	8	[0, 0, 0]	n/a	0	1	0	n/a	n/a	0.0	0	0	0	PAL2	1	R1031M
950.929	3.527	669134	REC_EVENT	1.49	n/a	FARM	CART	1	5	CART	FARM	1	8	[0, 0, 0]	n/a	0	1	0	n/a	n/a	0.0	0	0	0	PAL2	1	R1031M
954.456	0.016	670898	REC_END	n/a	n/a	n/a	n/a	1	-999	n/a	n/a	-999	8	[0, 0, 0]	n/a	0	1	0	n/a	n/a	0.0	0	0	0	PAL2	1	R1031M
954.472	0.25	670906	TEST_ORIENT	n/a	n/a	WOLF	HORSE	6	6	HORSE	WOLF	1	8	[0, 0, 0]	n/a	0	1	0	n/a	n/a	0.0	0	0	0	PAL2	1	R1031M
955.257	4.0	671298	TEST_PROBE	n/a	wordpools/wordpool_EN.txt	WOLF	HORSE	6	6	HORSE	WOLF	1	8	[0, 0, 0]	n/a	0	1	0	n/a	n/a	0.0	0	0	0	PAL2	1	R1031M
955.257	1.382	671298	REC_START	n/a	n/a	n/a	n/a	6	-999	n/a	WOLF	1	8	[0, 0, 0]	n/a	0	1	0	n/a	n/a	0.0	0	0	0	PAL2	1	R1031M
956.639	3.635	671989	REC_EVENT	1.382	n/a	WOLF	HORSE	6	6	HORSE	WOLF	1	8	[0, 0, 0]	n/a	0	1	0	n/a	n/a	0.0	0	0	0	PAL2	1	R1031M
960.274	7.939	673806	REC_END	n/a	n/a	n/a	n/a	6	-999	n/a	n/a	-999	8	[0, 0, 0]	n/a	0	1	0	n/a	n/a	0.0	0	0	0	PAL2	1	R1031M
968.213	10.448	677775	ENCODING_START	n/a	n/a	n/a	n/a	0	-999	n/a	n/a	-999	9	[0, 0, 0]	n/a	0	1	0	n/a	n/a	0.0	0	0	0	PAL2	1	R1031M
978.661	0.25	682999	STUDY_ORIENT	n/a	n/a	WALL	FORT	1	5	FORT	n/a	0	9	[0, 0, 0]	n/a	0	1	0	n/a	n/a	0.0	0	0	0	PAL2	1	R1031M
979.611	4.0	683474	STUDY_PAIR	n/a	wordpools/wordpool_EN.txt	WALL	FORT	1	5	FORT	n/a	0	9	[0, 0, 0]	n/a	0	1	0	n/a	n/a	0.0	0	0	0	PAL2	1	R1031M
984.645	0.25	685990	STUDY_ORIENT	n/a	n/a	TRAIN	SNAIL	2	4	TRAIN	SNAIL	1	9	[0, 0, 0]	n/a	0	1	0	n/a	n/a	0.0	0	0	0	PAL2	1	R1031M
985.413	4.0	686374	STUDY_PAIR	n/a	wordpools/wordpool_EN.txt	TRAIN	SNAIL	2	4	TRAIN	SNAIL	1	9	[0, 0, 0]	n/a	0	1	0	n/a	n/a	0.0	0	0	0	PAL2	1	R1031M
990.447	0.25	688891	STUDY_ORIENT	n/a	n/a	FOAM	PASTE	3	3	FOAM	SPONGE	0	9	[0, 0, 0]	n/a	0	1	0	n/a	n/a	0.0	0	0	0	PAL2	1	R1031M
991.331	4.0	689333	STUDY_PAIR	n/a	wordpools/wordpool_EN.txt	FOAM	PASTE	3	3	FOAM	SPONGE	0	9	[0, 0, 0]	n/a	0	1	0	n/a	n/a	0.0	0	0	0	PAL2	1	R1031M
996.365	0.25	691850	STUDY_ORIENT	n/a	n/a	COIN	STRAW	4	2	COIN	STRAW	1	9	[0, 0, 0]	n/a	0	1	0	n/a	n/a	0.0	0	0	0	PAL2	1	R1031M
997.365	4.0	692350	STUDY_PAIR	n/a	wordpools/wordpool_EN.txt	COIN	STRAW	4	2	COIN	STRAW	1	9	[0, 0, 0]	n/a	0	1	0	n/a	n/a	0.0	0	0	0	PAL2	1	R1031M
1002.383	0.25	694859	STUDY_ORIENT	n/a	n/a	ARK	SINK	5	1	SINK	n/a	0	9	[0, 0, 0]	n/a	0	1	0	n/a	n/a	0.0	0	0	0	PAL2	1	R1031M
1003.283	4.0	695309	STUDY_PAIR	n/a	wordpools/wordpool_EN.txt	ARK	SINK	5	1	SINK	n/a	0	9	[0, 0, 0]	n/a	0	1	0	n/a	n/a	0.0	0	0	0	PAL2	1	R1031M
1008.301	0.25	697817	STUDY_ORIENT	n/a	n/a	SKY	PANTS	6	6	PANTS	SKY	1	9	[0, 0, 0]	n/a	0	1	0	n/a	n/a	0.0	0	0	0	PAL2	1	R1031M
1009.234	4.0	698284	STUDY_PAIR	n/a	wordpools/wordpool_EN.txt	SKY	PANTS	6	6	PANTS	SKY	1	9	[0, 0, 0]	n/a	0	1	0	n/a	n/a	0.0	0	0	0	PAL2	1	R1031M
1013.236	0.999	700285	START	n/a	n/a	n/a	n/a	-999	-999	n/a	n/a	-999	9	[-999, -999, -999]	n/a	0	1	0	n/a	n/a	0.0	0	0	0	PAL2	1	R1031M
1014.235	0.017	700784	MATH_START	n/a	n/a	n/a	n/a	-999	-999	n/a	n/a	-999	9	[0, 0, 0]	n/a	0	1	0	n/a	n/a	0.0	0	0	0	PAL2	1	R1031M
1014.252	2.984	700792	PROB	2.961	n/a	n/a	n/a	-999	-999	n/a	n/a	-999	9	[3, 7, 5]	15	0	1	0	n/a	n/a	0.0	0	0	0	PAL2	1	R1031M
1017.236	2.75	702284	PROB	2.729	n/a	n/a	n/a	-999	-999	n/a	n/a	-999	9	[6, 9, 4]	19	0	1	0	n/a	n/a	0.0	0	0	0	PAL2	1	R1031M
1019.986	2.65	703659	PROB	2.618	n/a	n/a	n/a	-999	-999	n/a	n/a	-999	9	[1, 2, 6]	9	0	1	0	n/a	n/a	0.0	0	0	0	PAL2	1	R1031M
1022.636	2.785	704984	PROB	2.761	n/a	n/a	n/a	-999	-999	n/a	n/a	-999	9	[5, 2, 9]	16	0	1	0	n/a	n/a	0.0	0	0	0	PAL2	1	R1031M
1025.421	2.967	706376	PROB	2.944	n/a	n/a	n/a	-999	-999	n/a	n/a	-999	9	[6, 5, 4]	15	0	1	0	n/a	n/a	0.0	0	0	0	PAL2	1	R1031M
1028.388	3.017	707860	PROB	2.993	n/a	n/a	n/a	-999	-999	n/a	n/a	-999	9	[9, 4, 8]	21	0	1	0	n/a	n/a	0.0	0	0	0	PAL2	1	R1031M
1031.405	3.848	709368	PROB	3.848	n/a	n/a	n/a	-999	-999	n/a	n/a	-999	9	[8, 5, 4]	17	0	1	0	n/a	n/a	0.0	0	0	0	PAL2	1	R1031M
1035.253	0.003	711292	STOP	n/a	n/a	n/a	n/a	-999	-999	n/a	n/a	-999	9	[-999, -999, -999]	n/a	0	1	0	n/a	n/a	0.0	0	0	0	PAL2	1	R1031M
1035.256	0.0	711293	MATH_END	n/a	n/a	n/a	n/a	-999	-999	n/a	n/a	-999	9	[0, 0, 0]	n/a	0	1	0	n/a	n/a	0.0	0	0	0	PAL2	1	R1031M
1035.256	0.017	711293	TEST_START	n/a	n/a	n/a	n/a	-999	-999	n/a	n/a	-999	9	[0, 0, 0]	n/a	0	1	0	n/a	n/a	0.0	0	0	0	PAL2	1	R1031M
1035.273	0.25	711302	TEST_ORIENT	n/a	n/a	ARK	SINK	5	1	SINK	n/a	0	9	[0, 0, 0]	n/a	0	1	0	n/a	n/a	0.0	0	0	0	PAL2	1	R1031M
1036.073	4.0	711702	TEST_PROBE	n/a	wordpools/wordpool_EN.txt	ARK	SINK	5	1	SINK	n/a	0	9	[0, 0, 0]	n/a	0	1	0	n/a	n/a	0.0	0	0	0	PAL2	1	R1031M
1036.073	3.39	711702	REC_START	n/a	n/a	n/a	n/a	5	-999	n/a	n/a	0	9	[0, 0, 0]	n/a	0	1	0	n/a	n/a	0.0	0	0	0	PAL2	1	R1031M
1039.463	1.627	713397	REC_EVENT	3.39	n/a	ARK	SINK	5	1	SINK	<>	0	9	[0, 0, 0]	n/a	0	1	0	n/a	n/a	0.0	0	0	0	PAL2	1	R1031M
1041.09	0.017	714210	REC_END	n/a	n/a	n/a	n/a	5	-999	n/a	n/a	-999	9	[0, 0, 0]	n/a	0	1	0	n/a	n/a	0.0	0	0	0	PAL2	1	R1031M
1041.107	0.25	714219	TEST_ORIENT	n/a	n/a	COIN	STRAW	4	2	COIN	STRAW	1	9	[0, 0, 0]	n/a	0	1	0	n/a	n/a	0.0	0	0	0	PAL2	1	R1031M
1041.862	4.6	714596	STIM_ON	n/a	n/a	COIN	STRAW	4	2	COIN	STRAW	1	9	[0, 0, 0]	n/a	1	1	4600	LTD4	LTD5	1000.0	50	230	300	PAL2	1	R1031M
1042.074	4.0	714702	TEST_PROBE	n/a	wordpools/wordpool_EN.txt	COIN	STRAW	4	2	COIN	STRAW	1	9	[0, 0, 0]	n/a	1	1	4600	LTD4	LTD5	1000.0	50	230	300	PAL2	1	R1031M
1042.075	1.815	714703	REC_START	n/a	n/a	n/a	n/a	4	-999	n/a	STRAW	1	9	[0, 0, 0]	n/a	1	1	4600	LTD4	LTD5	1000.0	50	230	300	PAL2	1	R1031M
1043.89	3.193	715610	REC_EVENT	1.815	n/a	COIN	STRAW	4	2	COIN	STRAW	1	9	[0, 0, 0]	n/a	1	1	4600	LTD4	LTD5	1000.0	50	230	300	PAL2	1	R1031M
1047.083	0.009	717206	REC_END	n/a	n/a	n/a	n/a	4	-999	n/a	n/a	-999	9	[0, 0, 0]	n/a	0	1	0	n/a	n/a	0.0	0	0	0	PAL2	1	R1031M
1047.092	0.25	717211	TEST_ORIENT	n/a	n/a	FOAM	PASTE	3	3	FOAM	SPONGE	0	9	[0, 0, 0]	n/a	0	1	0	n/a	n/a	0.0	0	0	0	PAL2	1	R1031M
1047.959	4.0	717644	TEST_PROBE	n/a	wordpools/wordpool_EN.txt	FOAM	PASTE	3	3	FOAM	SPONGE	0	9	[0, 0, 0]	n/a	0	1	0	n/a	n/a	0.0	0	0	0	PAL2	1	R1031M
1047.959	1.631	717644	REC_START	n/a	n/a	n/a	n/a	3	-999	n/a	SPONGE	0	9	[0, 0, 0]	n/a	0	1	0	n/a	n/a	0.0	0	0	0	PAL2	1	R1031M
1049.59	3.386	718460	REC_EVENT	1.631	n/a	FOAM	PASTE	3	3	FOAM	SPONGE	0	9	[0, 0, 0]	n/a	0	1	0	n/a	n/a	0.0	0	0	0	PAL2	1	R1031M
1052.976	0.017	720153	REC_END	n/a	n/a	n/a	n/a	3	-999	n/a	n/a	-999	9	[0, 0, 0]	n/a	0	1	0	n/a	n/a	0.0	0	0	0	PAL2	1	R1031M
1052.993	0.25	720161	TEST_ORIENT	n/a	n/a	TRAIN	SNAIL	2	4	TRAIN	SNAIL	1	9	[0, 0, 0]	n/a	0	1	0	n/a	n/a	0.0	0	0	0	PAL2	1	R1031M
1053.734	4.6	720531	STIM_ON	n/a	n/a	TRAIN	SNAIL	2	4	TRAIN	SNAIL	1	9	[0, 0, 0]	n/a	1	1	4600	LTD4	LTD5	1000.0	50	230	300	PAL2	1	R1031M
1053.943	4.0	720636	TEST_PROBE	n/a	wordpools/wordpool_EN.txt	TRAIN	SNAIL	2	4	TRAIN	SNAIL	1	9	[0, 0, 0]	n/a	1	1	4600	LTD4	LTD5	1000.0	50	230	300	PAL2	1	R1031M
1053.944	2.071	720636	REC_START	n/a	n/a	n/a	n/a	2	-999	n/a	SNAIL	1	9	[0, 0, 0]	n/a	1	1	4600	LTD4	LTD5	1000.0	50	230	300	PAL2	1	R1031M
1056.015	2.937	721672	REC_EVENT	2.071	n/a	TRAIN	SNAIL	2	4	TRAIN	SNAIL	1	9	[0, 0, 0]	n/a	1	1	4600	LTD4	LTD5	1000.0	50	230	300	PAL2	1	R1031M
1058.952	0.009	723140	REC_END	n/a	n/a	n/a	n/a	2	-999	n/a	n/a	-999	9	[0, 0, 0]	n/a	0	1	0	n/a	n/a	0.0	0	0	0	PAL2	1	R1031M
1058.961	0.25	723145	TEST_ORIENT	n/a	n/a	WALL	FORT	1	5	FORT	n/a	0	9	[0, 0, 0]	n/a	0	1	0	n/a	n/a	0.0	0	0	0	PAL2	1	R1031M
1059.895	4.0	723612	TEST_PROBE	n/a	wordpools/wordpool_EN.txt	WALL	FORT	1	5	FORT	n/a	0	9	[0, 0, 0]	n/a	0	1	0	n/a	n/a	0.0	0	0	0	PAL2	1	R1031M
1059.895	4.04	723612	REC_START	n/a	n/a	n/a	n/a	1	-999	n/a	n/a	0	9	[0, 0, 0]	n/a	0	1	0	n/a	n/a	0.0	0	0	0	PAL2	1	R1031M
1063.935	0.977	725631	REC_EVENT	4.04	n/a	WALL	FORT	1	5	FORT	<>	0	9	[0, 0, 0]	n/a	0	1	0	n/a	n/a	0.0	0	0	0	PAL2	1	R1031M
1064.912	0.017	726120	REC_END	n/a	n/a	n/a	n/a	1	-999	n/a	n/a	-999	9	[0, 0, 0]	n/a	0	1	0	n/a	n/a	0.0	0	0	0	PAL2	1	R1031M
1064.929	0.25	726128	TEST_ORIENT	n/a	n/a	SKY	PANTS	6	6	PANTS	SKY	1	9	[0, 0, 0]	n/a	0	1	0	n/a	n/a	0.0	0	0	0	PAL2	1	R1031M
1065.71	4.6	726519	STIM_ON	n/a	n/a	SKY	PANTS	6	6	PANTS	SKY	1	9	[0, 0, 0]	n/a	1	1	4600	LTD4	LTD5	1000.0	50	230	300	PAL2	1	R1031M
1065.912	4.0	726620	TEST_PROBE	n/a	wordpools/wordpool_EN.txt	SKY	PANTS	6	6	PANTS	SKY	1	9	[0, 0, 0]	n/a	1	1	4600	LTD4	LTD5	1000.0	50	230	300	PAL2	1	R1031M
1065.913	2.925	726620	REC_START	n/a	n/a	n/a	n/a	6	-999	n/a	SKY	1	9	[0, 0, 0]	n/a	1	1	4600	LTD4	LTD5	1000.0	50	230	300	PAL2	1	R1031M
1068.838	2.075	728083	REC_EVENT	2.925	n/a	SKY	PANTS	6	6	PANTS	SKY	1	9	[0, 0, 0]	n/a	1	1	4600	LTD4	LTD5	1000.0	50	230	300	PAL2	1	R1031M
1070.913	3.052	729120	REC_END	n/a	n/a	n/a	n/a	6	-999	n/a	n/a	-999	9	[0, 0, 0]	n/a	0	1	0	n/a	n/a	0.0	0	0	0	PAL2	1	R1031M
1073.965	10.451	730646	ENCODING_START	n/a	n/a	n/a	n/a	0	-999	n/a	n/a	-999	10	[0, 0, 0]	n/a	0	1	0	n/a	n/a	0.0	0	0	0	PAL2	1	R1031M
1084.416	0.25	735871	STUDY_ORIENT	n/a	n/a	FRUIT	DOOR	1	1	FRUIT	n/a	0	10	[0, 0, 0]	n/a	0	1	0	n/a	n/a	0.0	0	0	0	PAL2	1	R1031M
1085.049	4.6	736187	STIM_ON	n/a	n/a	FRUIT	DOOR	1	1	FRUIT	n/a	0	10	[0, 0, 0]	n/a	1	1	4600	LTD4	LTD5	1000.0	50	230	300	PAL2	1	R1031M
1085.266	4.0	736296	STUDY_PAIR	n/a	wordpools/wordpool_EN.txt	FRUIT	DOOR	1	1	FRUIT	n/a	0	10	[0, 0, 0]	n/a	1	1	4600	LTD4	LTD5	1000.0	50	230	300	PAL2	1	R1031M
1090.284	0.25	738805	STUDY_ORIENT	n/a	n/a	NAIL	BUSH	2	4	BUSH	NAIL	1	10	[0, 0, 0]	n/a	0	1	0	n/a	n/a	0.0	0	0	0	PAL2	1	R1031M
1091.284	4.0	739305	STUDY_PAIR	n/a	wordpools/wordpool_EN.txt	NAIL	BUSH	2	4	BUSH	NAIL	1	10	[0, 0, 0]	n/a	0	1	0	n/a	n/a	0.0	0	0	0	PAL2	1	R1031M
1096.318	0.25	741821	STUDY_ORIENT	n/a	n/a	RIB	STICK	3	5	RIB	STICK	1	10	[0, 0, 0]	n/a	0	1	0	n/a	n/a	0.0	0	0	0	PAL2	1	R1031M
1096.945	4.6	742135	STIM_ON	n/a	n/a	RIB	STICK	3	5	RIB	STICK	1	10	[0, 0, 0]	n/a	1	1	4600	LTD4	LTD5	1000.0	50	230	300	PAL2	1	R1031M
1097.152	4.0	742238	STUDY_PAIR	n/a	wordpools/wordpool_EN.txt	RIB	STICK	3	5	RIB	STICK	1	10	[0, 0, 0]	n/a	1	1	4600	LTD4	LTD5	1000.0	50	230	300	PAL2	1	R1031M
1102.186	0.25	744755	STUDY_ORIENT	n/a	n/a	SHELL	FENCE	4	6	FENCE	SHELL	1	10	[0, 0, 0]	n/a	0	1	0	n/a	n/a	0.0	0	0	0	PAL2	1	R1031M
1103.036	4.0	745180	STUDY_PAIR	n/a	wordpools/wordpool_EN.txt	SHELL	FENCE	4	6	FENCE	SHELL	1	10	[0, 0, 0]	n/a	0	1	0	n/a	n/a	0.0	0	0	0	PAL2	1	R1031M
1108.054	0.25	747689	STUDY_ORIENT	n/a	n/a	PARK	TAIL	5	3	PARK	TAIL	1	10	[0, 0, 0]	n/a	0	1	0	n/a	n/a	0.0	0	0	0	PAL2	1	R1031M
1108.835	4.6	748079	STIM_ON	n/a	n/a	PARK	TAIL	5	3	PARK	TAIL	1	10	[0, 0, 0]	n/a	1	1	4600	LTD4	LTD5	1000.0	50	230	300	PAL2	1	R1031M
1109.037	4.0	748180	STUDY_PAIR	n/a	wordpools/wordpool_EN.txt	PARK	TAIL	5	3	PARK	TAIL	1	10	[0, 0, 0]	n/a	1	1	4600	LTD4	LTD5	1000.0	50	230	300	PAL2	1	R1031M
1114.055	0.25	750689	STUDY_ORIENT	n/a	n/a	RUG	BRICK	6	2	RUG	BRICK	1	10	[0, 0, 0]	n/a	0	1	0	n/a	n/a	0.0	0	0	0	PAL2	1	R1031M
1114.905	4.0	751114	STUDY_PAIR	n/a	wordpools/wordpool_EN.txt	RUG	BRICK	6	2	RUG	BRICK	1	10	[0, 0, 0]	n/a	0	1	0	n/a	n/a	0.0	0	0	0	PAL2	1	R1031M
1118.907	0.999	753115	START	n/a	n/a	n/a	n/a	-999	-999	n/a	n/a	-999	10	[-999, -999, -999]	n/a	0	1	0	n/a	n/a	0.0	0	0	0	PAL2	1	R1031M
1119.906	0.017	753614	MATH_START	n/a	n/a	n/a	n/a	-999	-999	n/a	n/a	-999	10	[0, 0, 0]	n/a	0	1	0	n/a	n/a	0.0	0	0	0	PAL2	1	R1031M
1119.923	2.783	753623	PROB	2.761	n/a	n/a	n/a	-999	-999	n/a	n/a	-999	10	[1, 1, 3]	5	0	1	0	n/a	n/a	0.0	0	0	0	PAL2	1	R1031M
1122.706	3.118	755014	PROB	3.083	n/a	n/a	n/a	-999	-999	n/a	n/a	-999	10	[2, 7, 5]	14	0	1	0	n/a	n/a	0.0	0	0	0	PAL2	1	R1031M
1125.824	3.85	756573	PROB	3.828	n/a	n/a	n/a	-999	-999	n/a	n/a	-999	10	[7, 9, 3]	19	0	1	0	n/a	n/a	0.0	0	0	0	PAL2	1	R1031M
1129.674	2.984	758498	PROB	2.962	n/a	n/a	n/a	-999	-999	n/a	n/a	-999	10	[9, 3, 6]	18	0	1	0	n/a	n/a	0.0	0	0	0	PAL2	1	R1031M
1132.658	2.917	759989	PROB	2.89	n/a	n/a	n/a	-999	-999	n/a	n/a	-999	10	[7, 1, 9]	17	0	1	0	n/a	n/a	0.0	0	0	0	PAL2	1	R1031M
1135.575	6.166	761448	PROB	6.166	n/a	n/a	n/a	-999	-999	n/a	n/a	-999	10	[8, 3, 8]	25	0	1	0	n/a	n/a	0.0	0	0	0	PAL2	1	R1031M
1141.741	0.003	764530	STOP	n/a	n/a	n/a	n/a	-999	-999	n/a	n/a	-999	10	[-999, -999, -999]	n/a	0	1	0	n/a	n/a	0.0	0	0	0	PAL2	1	R1031M
1141.744	0.0	764532	MATH_END	n/a	n/a	n/a	n/a	-999	-999	n/a	n/a	-999	10	[0, 0, 0]	n/a	0	1	0	n/a	n/a	0.0	0	0	0	PAL2	1	R1031M
1141.744	0.017	764532	TEST_START	n/a	n/a	n/a	n/a	-999	-999	n/a	n/a	-999	10	[0, 0, 0]	n/a	0	1	0	n/a	n/a	0.0	0	0	0	PAL2	1	R1031M
1141.761	0.25	764540	TEST_ORIENT	n/a	n/a	FRUIT	DOOR	1	1	FRUIT	n/a	0	10	[0, 0, 0]	n/a	0	1	0	n/a	n/a	0.0	0	0	0	PAL2	1	R1031M
1142.66	4.0	764990	TEST_PROBE	n/a	wordpools/wordpool_EN.txt	FRUIT	DOOR	1	1	FRUIT	n/a	0	10	[0, 0, 0]	n/a	0	1	0	n/a	n/a	0.0	0	0	0	PAL2	1	R1031M
1142.66	4.736	764990	REC_START	n/a	n/a	n/a	n/a	1	-999	n/a	n/a	0	10	[0, 0, 0]	n/a	0	1	0	n/a	n/a	0.0	0	0	0	PAL2	1	R1031M
1147.396	0.281	767358	REC_EVENT	4.736	n/a	FRUIT	DOOR	1	1	FRUIT	<>	0	10	[0, 0, 0]	n/a	0	1	0	n/a	n/a	0.0	0	0	0	PAL2	1	R1031M
1147.677	0.017	767498	REC_END	n/a	n/a	n/a	n/a	1	-999	n/a	n/a	-999	10	[0, 0, 0]	n/a	0	1	0	n/a	n/a	0.0	0	0	0	PAL2	1	R1031M
1147.694	0.25	767507	TEST_ORIENT	n/a	n/a	RUG	BRICK	6	2	RUG	BRICK	1	10	[0, 0, 0]	n/a	0	1	0	n/a	n/a	0.0	0	0	0	PAL2	1	R1031M
1148.494	4.0	767907	TEST_PROBE	n/a	wordpools/wordpool_EN.txt	RUG	BRICK	6	2	RUG	BRICK	1	10	[0, 0, 0]	n/a	0	1	0	n/a	n/a	0.0	0	0	0	PAL2	1	R1031M
1148.495	1.331	767907	REC_START	n/a	n/a	n/a	n/a	6	-999	n/a	BRICK	1	10	[0, 0, 0]	n/a	0	1	0	n/a	n/a	0.0	0	0	0	PAL2	1	R1031M
1149.826	3.677	768573	REC_EVENT	1.331	n/a	RUG	BRICK	6	2	RUG	BRICK	1	10	[0, 0, 0]	n/a	0	1	0	n/a	n/a	0.0	0	0	0	PAL2	1	R1031M
1153.503	0.009	770411	REC_END	n/a	n/a	n/a	n/a	6	-999	n/a	n/a	-999	10	[0, 0, 0]	n/a	0	1	0	n/a	n/a	0.0	0	0	0	PAL2	1	R1031M
1153.512	0.25	770415	TEST_ORIENT	n/a	n/a	PARK	TAIL	5	3	PARK	TAIL	1	10	[0, 0, 0]	n/a	0	1	0	n/a	n/a	0.0	0	0	0	PAL2	1	R1031M
1154.313	4.0	770816	TEST_PROBE	n/a	wordpools/wordpool_EN.txt	PARK	TAIL	5	3	PARK	TAIL	1	10	[0, 0, 0]	n/a	0	1	0	n/a	n/a	0.0	0	0	0	PAL2	1	R1031M
1154.314	3.828	770816	REC_START	n/a	n/a	n/a	n/a	5	-999	n/a	TAIL	1	10	[0, 0, 0]	n/a	0	1	0	n/a	n/a	0.0	0	0	0	PAL2	1	R1031M
1158.142	1.18	772730	REC_EVENT	3.828	n/a	PARK	TAIL	5	3	PARK	TAIL	1	10	[0, 0, 0]	n/a	0	1	0	n/a	n/a	0.0	0	0	0	PAL2	1	R1031M
1159.322	0.009	773320	REC_END	n/a	n/a	n/a	n/a	5	-999	n/a	n/a	-999	10	[0, 0, 0]	n/a	0	1	0	n/a	n/a	0.0	0	0	0	PAL2	1	R1031M
1159.331	0.25	773325	TEST_ORIENT	n/a	n/a	NAIL	BUSH	2	4	BUSH	NAIL	1	10	[0, 0, 0]	n/a	0	1	0	n/a	n/a	0.0	0	0	0	PAL2	1	R1031M
1160.331	4.0	773825	TEST_PROBE	n/a	wordpools/wordpool_EN.txt	NAIL	BUSH	2	4	BUSH	NAIL	1	10	[0, 0, 0]	n/a	0	1	0	n/a	n/a	0.0	0	0	0	PAL2	1	R1031M
1160.332	1.986	773825	REC_START	n/a	n/a	n/a	n/a	2	-999	n/a	NAIL	1	10	[0, 0, 0]	n/a	0	1	0	n/a	n/a	0.0	0	0	0	PAL2	1	R1031M
1162.318	3.03	774818	REC_EVENT	1.986	n/a	NAIL	BUSH	2	4	BUSH	NAIL	1	10	[0, 0, 0]	n/a	0	1	0	n/a	n/a	0.0	0	0	0	PAL2	1	R1031M
1165.348	0.017	776333	REC_END	n/a	n/a	n/a	n/a	2	-999	n/a	n/a	-999	10	[0, 0, 0]	n/a	0	1	0	n/a	n/a	0.0	0	0	0	PAL2	1	R1031M
1165.365	0.25	776341	TEST_ORIENT	n/a	n/a	RIB	STICK	3	5	RIB	STICK	1	10	[0, 0, 0]	n/a	0	1	0	n/a	n/a	0.0	0	0	0	PAL2	1	R1031M
1166.316	4.0	776817	TEST_PROBE	n/a	wordpools/wordpool_EN.txt	RIB	STICK	3	5	RIB	STICK	1	10	[0, 0, 0]	n/a	0	1	0	n/a	n/a	0.0	0	0	0	PAL2	1	R1031M
1166.316	2.847	776817	REC_START	n/a	n/a	n/a	n/a	3	-999	n/a	STICK	1	10	[0, 0, 0]	n/a	0	1	0	n/a	n/a	0.0	0	0	0	PAL2	1	R1031M
1169.163	2.17	778240	REC_EVENT	2.847	n/a	RIB	STICK	3	5	RIB	STICK	1	10	[0, 0, 0]	n/a	0	1	0	n/a	n/a	0.0	0	0	0	PAL2	1	R1031M
1171.333	0.017	779325	REC_END	n/a	n/a	n/a	n/a	3	-999	n/a	n/a	-999	10	[0, 0, 0]	n/a	0	1	0	n/a	n/a	0.0	0	0	0	PAL2	1	R1031M
1171.35	0.25	779333	TEST_ORIENT	n/a	n/a	SHELL	FENCE	4	6	FENCE	SHELL	1	10	[0, 0, 0]	n/a	0	1	0	n/a	n/a	0.0	0	0	0	PAL2	1	R1031M
1172.15	4.0	779733	TEST_PROBE	n/a	wordpools/wordpool_EN.txt	SHELL	FENCE	4	6	FENCE	SHELL	1	10	[0, 0, 0]	n/a	0	1	0	n/a	n/a	0.0	0	0	0	PAL2	1	R1031M
1172.151	4.243	779734	REC_START	n/a	n/a	n/a	n/a	4	-999	n/a	SHELL	1	10	[0, 0, 0]	n/a	0	1	0	n/a	n/a	0.0	0	0	0	PAL2	1	R1031M
1176.394	0.757	781855	REC_EVENT	4.243	n/a	SHELL	FENCE	4	6	FENCE	SHELL	1	10	[0, 0, 0]	n/a	0	1	0	n/a	n/a	0.0	0	0	0	PAL2	1	R1031M
1177.151	2.046	782234	REC_END	n/a	n/a	n/a	n/a	4	-999	n/a	n/a	-999	10	[0, 0, 0]	n/a	0	1	0	n/a	n/a	0.0	0	0	0	PAL2	1	R1031M
1179.197	10.439	783257	ENCODING_START	n/a	n/a	n/a	n/a	0	-999	n/a	n/a	-999	11	[0, 0, 0]	n/a	0	1	0	n/a	n/a	0.0	0	0	0	PAL2	1	R1031M
1189.636	0.25	788476	STUDY_ORIENT	n/a	n/a	MILK	FOG	1	5	FOG	MILK	1	11	[0, 0, 0]	n/a	0	1	0	n/a	n/a	0.0	0	0	0	PAL2	1	R1031M
1190.569	4.0	788942	STUDY_PAIR	n/a	wordpools/wordpool_EN.txt	MILK	FOG	1	5	FOG	MILK	1	11	[0, 0, 0]	n/a	0	1	0	n/a	n/a	0.0	0	0	0	PAL2	1	R1031M
1195.587	0.25	791451	STUDY_ORIENT	n/a	n/a	FROG	WEB	2	6	FROG	WEB	1	11	[0, 0, 0]	n/a	0	1	0	n/a	n/a	0.0	0	0	0	PAL2	1	R1031M
1196.272	4.6	791793	STIM_ON	n/a	n/a	FROG	WEB	2	6	FROG	WEB	1	11	[0, 0, 0]	n/a	1	1	4600	LTD4	LTD5	1000.0	50	230	300	PAL2	1	R1031M
1196.487	4.0	791901	STUDY_PAIR	n/a	wordpools/wordpool_EN.txt	FROG	WEB	2	6	FROG	WEB	1	11	[0, 0, 0]	n/a	1	1	4600	LTD4	LTD5	1000.0	50	230	300	PAL2	1	R1031M
1201.505	0.25	794409	STUDY_ORIENT	n/a	n/a	OWL	PEA	3	3	OWL	PEA	1	11	[0, 0, 0]	n/a	0	1	0	n/a	n/a	0.0	0	0	0	PAL2	1	R1031M
1202.29	4.0	794802	STUDY_PAIR	n/a	wordpools/wordpool_EN.txt	OWL	PEA	3	3	OWL	PEA	1	11	[0, 0, 0]	n/a	0	1	0	n/a	n/a	0.0	0	0	0	PAL2	1	R1031M
1207.324	0.25	797319	STUDY_ORIENT	n/a	n/a	WAVE	BOY	4	2	WAVE	BOY	1	11	[0, 0, 0]	n/a	0	1	0	n/a	n/a	0.0	0	0	0	PAL2	1	R1031M
1207.941	4.6	797627	STIM_ON	n/a	n/a	WAVE	BOY	4	2	WAVE	BOY	1	11	[0, 0, 0]	n/a	1	1	4600	LTD4	LTD5	1000.0	50	230	300	PAL2	1	R1031M
1208.157	4.0	797735	STUDY_PAIR	n/a	wordpools/wordpool_EN.txt	WAVE	BOY	4	2	WAVE	BOY	1	11	[0, 0, 0]	n/a	1	1	4600	LTD4	LTD5	1000.0	50	230	300	PAL2	1	R1031M
1213.175	0.25	800244	STUDY_ORIENT	n/a	n/a	WHEEL	KITE	5	1	KITE	WHEEL	1	11	[0, 0, 0]	n/a	0	1	0	n/a	n/a	0.0	0	0	0	PAL2	1	R1031M
1214.092	4.0	800702	STUDY_PAIR	n/a	wordpools/wordpool_EN.txt	WHEEL	KITE	5	1	KITE	WHEEL	1	11	[0, 0, 0]	n/a	0	1	0	n/a	n/a	0.0	0	0	0	PAL2	1	R1031M
1219.126	0.25	803219	STUDY_ORIENT	n/a	n/a	PIG	ELF	6	4	PIG	HORSE	0	11	[0, 0, 0]	n/a	0	1	0	n/a	n/a	0.0	0	0	0	PAL2	1	R1031M
1219.768	4.6	803540	STIM_ON	n/a	n/a	PIG	ELF	6	4	PIG	HORSE	0	11	[0, 0, 0]	n/a	1	1	4600	LTD4	LTD5	1000.0	50	230	300	PAL2	1	R1031M
1219.976	4.0	803644	STUDY_PAIR	n/a	wordpools/wordpool_EN.txt	PIG	ELF	6	4	PIG	HORSE	0	11	[0, 0, 0]	n/a	1	1	4600	LTD4	LTD5	1000.0	50	230	300	PAL2	1	R1031M
1223.977	1.0	805644	START	n/a	n/a	n/a	n/a	-999	-999	n/a	n/a	-999	11	[-999, -999, -999]	n/a	0	1	0	n/a	n/a	0.0	0	0	0	PAL2	1	R1031M
1224.977	0.017	806144	MATH_START	n/a	n/a	n/a	n/a	-999	-999	n/a	n/a	-999	11	[0, 0, 0]	n/a	0	1	0	n/a	n/a	0.0	0	0	0	PAL2	1	R1031M
1224.994	2.984	806153	PROB	2.963	n/a	n/a	n/a	-999	-999	n/a	n/a	-999	11	[7, 5, 2]	14	0	1	0	n/a	n/a	0.0	0	0	0	PAL2	1	R1031M
1227.978	2.7	807645	PROB	2.674	n/a	n/a	n/a	-999	-999	n/a	n/a	-999	11	[9, 4, 2]	15	0	1	0	n/a	n/a	0.0	0	0	0	PAL2	1	R1031M
1230.678	2.351	808994	PROB	2.319	n/a	n/a	n/a	-999	-999	n/a	n/a	-999	11	[6, 5, 2]	13	0	1	0	n/a	n/a	0.0	0	0	0	PAL2	1	R1031M
1233.029	2.516	810170	PROB	2.495	n/a	n/a	n/a	-999	-999	n/a	n/a	-999	11	[6, 8, 3]	17	0	1	0	n/a	n/a	0.0	0	0	0	PAL2	1	R1031M
1235.545	3.535	811428	PROB	3.5	n/a	n/a	n/a	-999	-999	n/a	n/a	-999	11	[4, 7, 4]	15	0	1	0	n/a	n/a	0.0	0	0	0	PAL2	1	R1031M
1239.08	3.168	813195	PROB	3.141	n/a	n/a	n/a	-999	-999	n/a	n/a	-999	11	[2, 1, 8]	11	0	1	0	n/a	n/a	0.0	0	0	0	PAL2	1	R1031M
1242.248	2.404	814779	PROB	2.404	n/a	n/a	n/a	-999	-999	n/a	n/a	-999	11	[7, 6, 3]	16	0	1	0	n/a	n/a	0.0	0	0	0	PAL2	1	R1031M
1244.652	0.012	815981	STOP	n/a	n/a	n/a	n/a	-999	-999	n/a	n/a	-999	11	[-999, -999, -999]	n/a	0	1	0	n/a	n/a	0.0	0	0	0	PAL2	1	R1031M
1244.664	0.0	815987	MATH_END	n/a	n/a	n/a	n/a	-999	-999	n/a	n/a	-999	11	[0, 0, 0]	n/a	0	1	0	n/a	n/a	0.0	0	0	0	PAL2	1	R1031M
1244.664	0.016	815987	TEST_START	n/a	n/a	n/a	n/a	-999	-999	n/a	n/a	-999	11	[0, 0, 0]	n/a	0	1	0	n/a	n/a	0.0	0	0	0	PAL2	1	R1031M
1244.68	0.25	815995	TEST_ORIENT	n/a	n/a	WHEEL	KITE	5	1	KITE	WHEEL	1	11	[0, 0, 0]	n/a	0	1	0	n/a	n/a	0.0	0	0	0	PAL2	1	R1031M
1245.681	4.0	816495	TEST_PROBE	n/a	wordpools/wordpool_EN.txt	WHEEL	KITE	5	1	KITE	WHEEL	1	11	[0, 0, 0]	n/a	0	1	0	n/a	n/a	0.0	0	0	0	PAL2	1	R1031M
1245.681	1.356	816495	REC_START	n/a	n/a	n/a	n/a	5	-999	n/a	WHEEL	1	11	[0, 0, 0]	n/a	0	1	0	n/a	n/a	0.0	0	0	0	PAL2	1	R1031M
1247.037	3.661	817173	REC_EVENT	1.356	n/a	WHEEL	KITE	5	1	KITE	WHEEL	1	11	[0, 0, 0]	n/a	0	1	0	n/a	n/a	0.0	0	0	0	PAL2	1	R1031M
1250.698	0.017	819003	REC_END	n/a	n/a	n/a	n/a	5	-999	n/a	n/a	-999	11	[0, 0, 0]	n/a	0	1	0	n/a	n/a	0.0	0	0	0	PAL2	1	R1031M
1250.715	0.25	819012	TEST_ORIENT	n/a	n/a	WAVE	BOY	4	2	WAVE	BOY	1	11	[0, 0, 0]	n/a	0	1	0	n/a	n/a	0.0	0	0	0	PAL2	1	R1031M
1251.631	4.0	819470	TEST_PROBE	n/a	wordpools/wordpool_EN.txt	WAVE	BOY	4	2	WAVE	BOY	1	11	[0, 0, 0]	n/a	0	1	0	n/a	n/a	0.0	0	0	0	PAL2	1	R1031M
1251.632	1.089	819470	REC_START	n/a	n/a	n/a	n/a	4	-999	n/a	BOY	1	11	[0, 0, 0]	n/a	0	1	0	n/a	n/a	0.0	0	0	0	PAL2	1	R1031M
1252.721	3.945	820015	REC_EVENT	1.089	n/a	WAVE	BOY	4	2	WAVE	BOY	1	11	[0, 0, 0]	n/a	0	1	0	n/a	n/a	0.0	0	0	0	PAL2	1	R1031M
1256.666	0.017	821987	REC_END	n/a	n/a	n/a	n/a	4	-999	n/a	n/a	-999	11	[0, 0, 0]	n/a	0	1	0	n/a	n/a	0.0	0	0	0	PAL2	1	R1031M
1256.683	0.25	821996	TEST_ORIENT	n/a	n/a	OWL	PEA	3	3	OWL	PEA	1	11	[0, 0, 0]	n/a	0	1	0	n/a	n/a	0.0	0	0	0	PAL2	1	R1031M
1257.666	4.0	822487	TEST_PROBE	n/a	wordpools/wordpool_EN.txt	OWL	PEA	3	3	OWL	PEA	1	11	[0, 0, 0]	n/a	0	1	0	n/a	n/a	0.0	0	0	0	PAL2	1	R1031M
1257.667	2.284	822488	REC_START	n/a	n/a	n/a	n/a	3	-999	n/a	PEA	1	11	[0, 0, 0]	n/a	0	1	0	n/a	n/a	0.0	0	0	0	PAL2	1	R1031M
1259.951	2.724	823629	REC_EVENT	2.284	n/a	OWL	PEA	3	3	OWL	PEA	1	11	[0, 0, 0]	n/a	0	1	0	n/a	n/a	0.0	0	0	0	PAL2	1	R1031M
1262.675	0.009	824991	REC_END	n/a	n/a	n/a	n/a	3	-999	n/a	n/a	-999	11	[0, 0, 0]	n/a	0	1	0	n/a	n/a	0.0	0	0	0	PAL2	1	R1031M
1262.684	0.25	824996	TEST_ORIENT	n/a	n/a	PIG	ELF	6	4	PIG	HORSE	0	11	[0, 0, 0]	n/a	0	1	0	n/a	n/a	0.0	0	0	0	PAL2	1	R1031M
1263.501	4.0	825404	TEST_PROBE	n/a	wordpools/wordpool_EN.txt	PIG	ELF	6	4	PIG	HORSE	0	11	[0, 0, 0]	n/a	0	1	0	n/a	n/a	0.0	0	0	0	PAL2	1	R1031M
1263.501	4.658	825404	REC_START	n/a	n/a	n/a	n/a	6	-999	n/a	HORSE	0	11	[0, 0, 0]	n/a	0	1	0	n/a	n/a	0.0	0	0	0	PAL2	1	R1031M
1268.159	0.359	827733	REC_EVENT	4.658	n/a	PIG	ELF	6	4	PIG	HORSE	0	11	[0, 0, 0]	n/a	0	1	0	n/a	n/a	0.0	0	0	0	PAL2	1	R1031M
1268.518	0.017	827913	REC_END	n/a	n/a	n/a	n/a	6	-999	n/a	n/a	-999	11	[0, 0, 0]	n/a	0	1	0	n/a	n/a	0.0	0	0	0	PAL2	1	R1031M
1268.535	0.25	827921	TEST_ORIENT	n/a	n/a	MILK	FOG	1	5	FOG	MILK	1	11	[0, 0, 0]	n/a	0	1	0	n/a	n/a	0.0	0	0	0	PAL2	1	R1031M
1269.469	4.0	828388	TEST_PROBE	n/a	wordpools/wordpool_EN.txt	MILK	FOG	1	5	FOG	MILK	1	11	[0, 0, 0]	n/a	0	1	0	n/a	n/a	0.0	0	0	0	PAL2	1	R1031M
1269.47	1.496	828388	REC_START	n/a	n/a	n/a	n/a	1	-999	n/a	MILK	1	11	[0, 0, 0]	n/a	0	1	0	n/a	n/a	0.0	0	0	0	PAL2	1	R1031M
1270.966	3.527	829136	REC_EVENT	1.496	n/a	MILK	FOG	1	5	FOG	MILK	1	11	[0, 0, 0]	n/a	0	1	0	n/a	n/a	0.0	0	0	0	PAL2	1	R1031M
1274.493	0.01	830900	REC_END	n/a	n/a	n/a	n/a	1	-999	n/a	n/a	-999	11	[0, 0, 0]	n/a	0	1	0	n/a	n/a	0.0	0	0	0	PAL2	1	R1031M
1274.503	0.25	830905	TEST_ORIENT	n/a	n/a	FROG	WEB	2	6	FROG	WEB	1	11	[0, 0, 0]	n/a	0	1	0	n/a	n/a	0.0	0	0	0	PAL2	1	R1031M
1275.536	4.0	831421	TEST_PROBE	n/a	wordpools/wordpool_EN.txt	FROG	WEB	2	6	FROG	WEB	1	11	[0, 0, 0]	n/a	0	1	0	n/a	n/a	0.0	0	0	0	PAL2	1	R1031M
1275.537	1.799	831422	REC_START	n/a	n/a	n/a	n/a	2	-999	n/a	WEB	1	11	[0, 0, 0]	n/a	0	1	0	n/a	n/a	0.0	0	0	0	PAL2	1	R1031M
1277.336	3.209	832321	REC_EVENT	1.799	n/a	FROG	WEB	2	6	FROG	WEB	1	11	[0, 0, 0]	n/a	0	1	0	n/a	n/a	0.0	0	0	0	PAL2	1	R1031M
1280.545	1.54	833925	REC_END	n/a	n/a	n/a	n/a	2	-999	n/a	n/a	-999	11	[0, 0, 0]	n/a	0	1	0	n/a	n/a	0.0	0	0	0	PAL2	1	R1031M
1282.085	10.438	834695	ENCODING_START	n/a	n/a	n/a	n/a	0	-999	n/a	n/a	-999	12	[0, 0, 0]	n/a	0	0	0	n/a	n/a	0.0	0	0	0	PAL2	1	R1031M
1292.523	0.25	839914	STUDY_ORIENT	n/a	n/a	TANK	SHRIMP	1	1	SHRIMP	TANK	1	12	[0, 0, 0]	n/a	0	0	0	n/a	n/a	0.0	0	0	0	PAL2	1	R1031M
1293.358	4.0	840331	STUDY_PAIR	n/a	wordpools/wordpool_EN.txt	TANK	SHRIMP	1	1	SHRIMP	TANK	1	12	[0, 0, 0]	n/a	0	0	0	n/a	n/a	0.0	0	0	0	PAL2	1	R1031M
1298.392	0.25	842848	STUDY_ORIENT	n/a	n/a	ROPE	SPRING	2	6	ROPE	SPRING	1	12	[0, 0, 0]	n/a	0	0	0	n/a	n/a	0.0	0	0	0	PAL2	1	R1031M
1299.309	4.0	843306	STUDY_PAIR	n/a	wordpools/wordpool_EN.txt	ROPE	SPRING	2	6	ROPE	SPRING	1	12	[0, 0, 0]	n/a	0	0	0	n/a	n/a	0.0	0	0	0	PAL2	1	R1031M
1304.343	0.25	845823	STUDY_ORIENT	n/a	n/a	TENT	ANT	3	5	TENT	ANT	1	12	[0, 0, 0]	n/a	0	0	0	n/a	n/a	0.0	0	0	0	PAL2	1	R1031M
1305.143	4.0	846223	STUDY_PAIR	n/a	wordpools/wordpool_EN.txt	TENT	ANT	3	5	TENT	ANT	1	12	[0, 0, 0]	n/a	0	0	0	n/a	n/a	0.0	0	0	0	PAL2	1	R1031M
1310.161	0.25	848732	STUDY_ORIENT	n/a	n/a	HOSE	SEED	4	4	HOSE	SEED	1	12	[0, 0, 0]	n/a	0	0	0	n/a	n/a	0.0	0	0	0	PAL2	1	R1031M
1311.178	4.0	849240	STUDY_PAIR	n/a	wordpools/wordpool_EN.txt	HOSE	SEED	4	4	HOSE	SEED	1	12	[0, 0, 0]	n/a	0	0	0	n/a	n/a	0.0	0	0	0	PAL2	1	R1031M
1316.212	0.25	851757	STUDY_ORIENT	n/a	n/a	CLAY	SOCK	5	3	SOCK	CLAY	1	12	[0, 0, 0]	n/a	0	0	0	n/a	n/a	0.0	0	0	0	PAL2	1	R1031M
1317.213	4.0	852258	STUDY_PAIR	n/a	wordpools/wordpool_EN.txt	CLAY	SOCK	5	3	SOCK	CLAY	1	12	[0, 0, 0]	n/a	0	0	0	n/a	n/a	0.0	0	0	0	PAL2	1	R1031M
1322.247	0.25	854774	STUDY_ORIENT	n/a	n/a	FISH	STRING	6	2	FISH	n/a	0	12	[0, 0, 0]	n/a	0	0	0	n/a	n/a	0.0	0	0	0	PAL2	1	R1031M
1323.214	4.0	855258	STUDY_PAIR	n/a	wordpools/wordpool_EN.txt	FISH	STRING	6	2	FISH	n/a	0	12	[0, 0, 0]	n/a	0	0	0	n/a	n/a	0.0	0	0	0	PAL2	1	R1031M
1327.232	0.999	857267	START	n/a	n/a	n/a	n/a	-999	-999	n/a	n/a	-999	12	[-999, -999, -999]	n/a	0	0	0	n/a	n/a	0.0	0	0	0	PAL2	1	R1031M
1328.231	0.017	857766	MATH_START	n/a	n/a	n/a	n/a	-999	-999	n/a	n/a	-999	12	[0, 0, 0]	n/a	0	0	0	n/a	n/a	0.0	0	0	0	PAL2	1	R1031M
1328.248	7.151	857775	PROB	7.117	n/a	n/a	n/a	-999	-999	n/a	n/a	-999	12	[7, 8, 9]	24	0	0	0	n/a	n/a	0.0	0	0	0	PAL2	1	R1031M
1335.399	4.451	861350	PROB	4.422	n/a	n/a	n/a	-999	-999	n/a	n/a	-999	12	[7, 3, 1]	11	0	0	0	n/a	n/a	0.0	0	0	0	PAL2	1	R1031M
1339.85	2.567	863575	PROB	2.539	n/a	n/a	n/a	-999	-999	n/a	n/a	-999	12	[1, 6, 1]	8	0	0	0	n/a	n/a	0.0	0	0	0	PAL2	1	R1031M
1342.417	2.901	864858	PROB	2.868	n/a	n/a	n/a	-999	-999	n/a	n/a	-999	12	[8, 8, 9]	25	0	0	0	n/a	n/a	0.0	0	0	0	PAL2	1	R1031M
1345.318	2.927	866309	PROB	2.927	n/a	n/a	n/a	-999	-999	n/a	n/a	-999	12	[4, 1, 2]	7	0	0	0	n/a	n/a	0.0	0	0	0	PAL2	1	R1031M
1348.245	0.007	867772	STOP	n/a	n/a	n/a	n/a	-999	-999	n/a	n/a	-999	12	[-999, -999, -999]	n/a	0	0	0	n/a	n/a	0.0	0	0	0	PAL2	1	R1031M
1348.252	0.0	867775	MATH_END	n/a	n/a	n/a	n/a	-999	-999	n/a	n/a	-999	12	[0, 0, 0]	n/a	0	0	0	n/a	n/a	0.0	0	0	0	PAL2	1	R1031M
1348.252	0.017	867775	TEST_START	n/a	n/a	n/a	n/a	-999	-999	n/a	n/a	-999	12	[0, 0, 0]	n/a	0	0	0	n/a	n/a	0.0	0	0	0	PAL2	1	R1031M
1348.269	0.25	867784	TEST_ORIENT	n/a	n/a	TANK	SHRIMP	1	1	SHRIMP	TANK	1	12	[0, 0, 0]	n/a	0	0	0	n/a	n/a	0.0	0	0	0	PAL2	1	R1031M
1349.186	4.0	868242	TEST_PROBE	n/a	wordpools/wordpool_EN.txt	TANK	SHRIMP	1	1	SHRIMP	TANK	1	12	[0, 0, 0]	n/a	0	0	0	n/a	n/a	0.0	0	0	0	PAL2	1	R1031M
1349.186	1.029	868242	REC_START	n/a	n/a	n/a	n/a	1	-999	n/a	TANK	1	12	[0, 0, 0]	n/a	0	0	0	n/a	n/a	0.0	0	0	0	PAL2	1	R1031M
1350.215	3.988	868757	REC_EVENT	1.029	n/a	TANK	SHRIMP	1	1	SHRIMP	TANK	1	12	[0, 0, 0]	n/a	0	0	0	n/a	n/a	0.0	0	0	0	PAL2	1	R1031M
1354.203	0.017	870751	REC_END	n/a	n/a	n/a	n/a	1	-999	n/a	n/a	-999	12	[0, 0, 0]	n/a	0	0	0	n/a	n/a	0.0	0	0	0	PAL2	1	R1031M
1354.22	0.25	870759	TEST_ORIENT	n/a	n/a	FISH	STRING	6	2	FISH	n/a	0	12	[0, 0, 0]	n/a	0	0	0	n/a	n/a	0.0	0	0	0	PAL2	1	R1031M
1355.137	0.0	871218	REC_START	n/a	n/a	n/a	n/a	6	-999	n/a	n/a	0	12	[0, 0, 0]	n/a	0	0	0	n/a	n/a	0.0	0	0	0	PAL2	1	R1031M
1355.137	4.0	871218	TEST_PROBE	n/a	wordpools/wordpool_EN.txt	FISH	STRING	6	2	FISH	n/a	0	12	[0, 0, 0]	n/a	0	0	0	n/a	n/a	0.0	0	0	0	PAL2	1	R1031M
1359.804	0.35	873551	REC_EVENT	4.667	n/a	FISH	STRING	6	2	FISH	<>	0	12	[0, 0, 0]	n/a	0	0	0	n/a	n/a	0.0	0	0	0	PAL2	1	R1031M
1360.154	0.017	873726	REC_END	n/a	n/a	n/a	n/a	6	-999	n/a	n/a	-999	12	[0, 0, 0]	n/a	0	0	0	n/a	n/a	0.0	0	0	0	PAL2	1	R1031M
1360.171	0.25	873734	TEST_ORIENT	n/a	n/a	CLAY	SOCK	5	3	SOCK	CLAY	1	12	[0, 0, 0]	n/a	0	0	0	n/a	n/a	0.0	0	0	0	PAL2	1	R1031M
1361.121	4.0	874209	TEST_PROBE	n/a	wordpools/wordpool_EN.txt	CLAY	SOCK	5	3	SOCK	CLAY	1	12	[0, 0, 0]	n/a	0	0	0	n/a	n/a	0.0	0	0	0	PAL2	1	R1031M
1361.122	4.402	874210	REC_START	n/a	n/a	n/a	n/a	5	-999	n/a	CLAY	1	12	[0, 0, 0]	n/a	0	0	0	n/a	n/a	0.0	0	0	0	PAL2	1	R1031M
1365.524	0.606	876411	REC_EVENT	4.402	n/a	CLAY	SOCK	5	3	SOCK	CLAY	1	12	[0, 0, 0]	n/a	0	0	0	n/a	n/a	0.0	0	0	0	PAL2	1	R1031M
1366.13	0.009	876714	REC_END	n/a	n/a	n/a	n/a	5	-999	n/a	n/a	-999	12	[0, 0, 0]	n/a	0	0	0	n/a	n/a	0.0	0	0	0	PAL2	1	R1031M
1366.139	0.25	876718	TEST_ORIENT	n/a	n/a	HOSE	SEED	4	4	HOSE	SEED	1	12	[0, 0, 0]	n/a	0	0	0	n/a	n/a	0.0	0	0	0	PAL2	1	R1031M
1366.956	4.0	877127	TEST_PROBE	n/a	wordpools/wordpool_EN.txt	HOSE	SEED	4	4	HOSE	SEED	1	12	[0, 0, 0]	n/a	0	0	0	n/a	n/a	0.0	0	0	0	PAL2	1	R1031M
1366.956	3.877	877127	REC_START	n/a	n/a	n/a	n/a	4	-999	n/a	SEED	1	12	[0, 0, 0]	n/a	0	0	0	n/a	n/a	0.0	0	0	0	PAL2	1	R1031M
1370.833	1.14	879065	REC_EVENT	3.877	n/a	HOSE	SEED	4	4	HOSE	SEED	1	12	[0, 0, 0]	n/a	0	0	0	n/a	n/a	0.0	0	0	0	PAL2	1	R1031M
1371.973	0.017	879635	REC_END	n/a	n/a	n/a	n/a	4	-999	n/a	n/a	-999	12	[0, 0, 0]	n/a	0	0	0	n/a	n/a	0.0	0	0	0	PAL2	1	R1031M
1371.99	0.25	879643	TEST_ORIENT	n/a	n/a	TENT	ANT	3	5	TENT	ANT	1	12	[0, 0, 0]	n/a	0	0	0	n/a	n/a	0.0	0	0	0	PAL2	1	R1031M
1372.84	4.0	880068	TEST_PROBE	n/a	wordpools/wordpool_EN.txt	TENT	ANT	3	5	TENT	ANT	1	12	[0, 0, 0]	n/a	0	0	0	n/a	n/a	0.0	0	0	0	PAL2	1	R1031M
1372.841	1.482	880069	REC_START	n/a	n/a	n/a	n/a	3	-999	n/a	ANT	1	12	[0, 0, 0]	n/a	0	0	0	n/a	n/a	0.0	0	0	0	PAL2	1	R1031M
1374.323	3.526	880810	REC_EVENT	1.482	n/a	TENT	ANT	3	5	TENT	ANT	1	12	[0, 0, 0]	n/a	0	0	0	n/a	n/a	0.0	0	0	0	PAL2	1	R1031M
1377.849	0.009	882572	REC_END	n/a	n/a	n/a	n/a	3	-999	n/a	n/a	-999	12	[0, 0, 0]	n/a	0	0	0	n/a	n/a	0.0	0	0	0	PAL2	1	R1031M
1377.858	0.25	882577	TEST_ORIENT	n/a	n/a	ROPE	SPRING	2	6	ROPE	SPRING	1	12	[0, 0, 0]	n/a	0	0	0	n/a	n/a	0.0	0	0	0	PAL2	1	R1031M
1378.69	4.0	882993	TEST_PROBE	n/a	wordpools/wordpool_EN.txt	ROPE	SPRING	2	6	ROPE	SPRING	1	12	[0, 0, 0]	n/a	0	0	0	n/a	n/a	0.0	0	0	0	PAL2	1	R1031M
1378.691	1.216	882993	REC_START	n/a	n/a	n/a	n/a	2	-999	n/a	SPRING	1	12	[0, 0, 0]	n/a	0	0	0	n/a	n/a	0.0	0	0	0	PAL2	1	R1031M
1379.907	3.792	883601	REC_EVENT	1.216	n/a	ROPE	SPRING	2	6	ROPE	SPRING	1	12	[0, 0, 0]	n/a	0	0	0	n/a	n/a	0.0	0	0	0	PAL2	1	R1031M
1383.699	1.873	885497	REC_END	n/a	n/a	n/a	n/a	2	-999	n/a	n/a	-999	12	[0, 0, 0]	n/a	0	0	0	n/a	n/a	0.0	0	0	0	PAL2	1	R1031M
1385.572	10.44	886434	ENCODING_START	n/a	n/a	n/a	n/a	0	-999	n/a	n/a	-999	13	[0, 0, 0]	n/a	0	1	0	n/a	n/a	0.0	0	0	0	PAL2	1	R1031M
1396.012	0.25	891653	STUDY_ORIENT	n/a	n/a	SMILE	TRAY	1	3	SMILE	TRAY	1	13	[0, 0, 0]	n/a	0	1	0	n/a	n/a	0.0	0	0	0	PAL2	1	R1031M
1396.895	4.0	892095	STUDY_PAIR	n/a	wordpools/wordpool_EN.txt	SMILE	TRAY	1	3	SMILE	TRAY	1	13	[0, 0, 0]	n/a	0	1	0	n/a	n/a	0.0	0	0	0	PAL2	1	R1031M
1401.913	0.25	894603	STUDY_ORIENT	n/a	n/a	BEE	CAT	2	4	BEE	CAT	1	13	[0, 0, 0]	n/a	0	1	0	n/a	n/a	0.0	0	0	0	PAL2	1	R1031M
1402.697	4.6	894995	STIM_ON	n/a	n/a	BEE	CAT	2	4	BEE	CAT	1	13	[0, 0, 0]	n/a	1	1	4600	LTD4	LTD5	1000.0	50	230	300	PAL2	1	R1031M
1402.913	4.0	895103	STUDY_PAIR	n/a	wordpools/wordpool_EN.txt	BEE	CAT	2	4	BEE	CAT	1	13	[0, 0, 0]	n/a	1	1	4600	LTD4	LTD5	1000.0	50	230	300	PAL2	1	R1031M
1407.947	0.25	897620	STUDY_ORIENT	n/a	n/a	SLEEVE	SPONGE	3	1	SLEEVE	SPONGE	1	13	[0, 0, 0]	n/a	0	1	0	n/a	n/a	0.0	0	0	0	PAL2	1	R1031M
1408.881	4.0	898087	STUDY_PAIR	n/a	wordpools/wordpool_EN.txt	SLEEVE	SPONGE	3	1	SLEEVE	SPONGE	1	13	[0, 0, 0]	n/a	0	1	0	n/a	n/a	0.0	0	0	0	PAL2	1	R1031M
1413.915	0.25	900604	STUDY_ORIENT	n/a	n/a	SEAT	SLIME	4	2	SLIME	SEAT	1	13	[0, 0, 0]	n/a	0	1	0	n/a	n/a	0.0	0	0	0	PAL2	1	R1031M
1414.65	4.6	900971	STIM_ON	n/a	n/a	SEAT	SLIME	4	2	SLIME	SEAT	1	13	[0, 0, 0]	n/a	1	1	4600	LTD4	LTD5	1000.0	50	230	300	PAL2	1	R1031M
1414.865	4.0	901079	STUDY_PAIR	n/a	wordpools/wordpool_EN.txt	SEAT	SLIME	4	2	SLIME	SEAT	1	13	[0, 0, 0]	n/a	1	1	4600	LTD4	LTD5	1000.0	50	230	300	PAL2	1	R1031M
1419.883	0.25	903587	STUDY_ORIENT	n/a	n/a	DOG	BAT	5	5	BAT	DOG	1	13	[0, 0, 0]	n/a	0	1	0	n/a	n/a	0.0	0	0	0	PAL2	1	R1031M
1420.817	4.0	904054	STUDY_PAIR	n/a	wordpools/wordpool_EN.txt	DOG	BAT	5	5	BAT	DOG	1	13	[0, 0, 0]	n/a	0	1	0	n/a	n/a	0.0	0	0	0	PAL2	1	R1031M
1425.851	0.25	906571	STUDY_ORIENT	n/a	n/a	MAP	MAZE	6	6	MAP	MAZE	1	13	[0, 0, 0]	n/a	0	1	0	n/a	n/a	0.0	0	0	0	PAL2	1	R1031M
1426.659	4.6	906975	STIM_ON	n/a	n/a	MAP	MAZE	6	6	MAP	MAZE	1	13	[0, 0, 0]	n/a	1	1	4600	LTD4	LTD5	1000.0	50	230	300	PAL2	1	R1031M
1426.868	4.0	907079	STUDY_PAIR	n/a	wordpools/wordpool_EN.txt	MAP	MAZE	6	6	MAP	MAZE	1	13	[0, 0, 0]	n/a	1	1	4600	LTD4	LTD5	1000.0	50	230	300	PAL2	1	R1031M
1430.886	0.999	909088	START	n/a	n/a	n/a	n/a	-999	-999	n/a	n/a	-999	13	[-999, -999, -999]	n/a	0	1	0	n/a	n/a	0.0	0	0	0	PAL2	1	R1031M
1431.885	0.017	909588	MATH_START	n/a	n/a	n/a	n/a	-999	-999	n/a	n/a	-999	13	[0, 0, 0]	n/a	0	1	0	n/a	n/a	0.0	0	0	0	PAL2	1	R1031M
1431.902	2.834	909596	PROB	2.798	n/a	n/a	n/a	-999	-999	n/a	n/a	-999	13	[3, 8, 6]	17	0	1	0	n/a	n/a	0.0	0	0	0	PAL2	1	R1031M
1434.736	3.134	911013	PROB	3.101	n/a	n/a	n/a	-999	-999	n/a	n/a	-999	13	[2, 9, 6]	17	0	1	0	n/a	n/a	0.0	0	0	0	PAL2	1	R1031M
1437.87	2.633	912580	PROB	2.598	n/a	n/a	n/a	-999	-999	n/a	n/a	-999	13	[8, 1, 9]	18	0	1	0	n/a	n/a	0.0	0	0	0	PAL2	1	R1031M
1440.503	2.468	913896	PROB	2.438	n/a	n/a	n/a	-999	-999	n/a	n/a	-999	13	[6, 9, 8]	23	0	1	0	n/a	n/a	0.0	0	0	0	PAL2	1	R1031M
1442.971	2.499	915130	PROB	2.466	n/a	n/a	n/a	-999	-999	n/a	n/a	-999	13	[8, 2, 4]	14	0	1	0	n/a	n/a	0.0	0	0	0	PAL2	1	R1031M
1445.47	3.385	916380	PROB	3.351	n/a	n/a	n/a	-999	-999	n/a	n/a	-999	13	[5, 3, 9]	17	0	1	0	n/a	n/a	0.0	0	0	0	PAL2	1	R1031M
1448.855	6.902	918072	PROB	6.902	n/a	n/a	n/a	-999	-999	n/a	n/a	-999	13	[4, 5, 5]	14	0	1	0	n/a	n/a	0.0	0	0	0	PAL2	1	R1031M
1455.757	0.017	921523	STOP	n/a	n/a	n/a	n/a	-999	-999	n/a	n/a	-999	13	[-999, -999, -999]	n/a	0	1	0	n/a	n/a	0.0	0	0	0	PAL2	1	R1031M
1455.774	0.0	921531	MATH_END	n/a	n/a	n/a	n/a	-999	-999	n/a	n/a	-999	13	[0, 0, 0]	n/a	0	1	0	n/a	n/a	0.0	0	0	0	PAL2	1	R1031M
1455.774	0.016	921531	TEST_START	n/a	n/a	n/a	n/a	-999	-999	n/a	n/a	-999	13	[0, 0, 0]	n/a	0	1	0	n/a	n/a	0.0	0	0	0	PAL2	1	R1031M
1455.79	0.25	921539	TEST_ORIENT	n/a	n/a	SLEEVE	SPONGE	3	1	SLEEVE	SPONGE	1	13	[0, 0, 0]	n/a	0	1	0	n/a	n/a	0.0	0	0	0	PAL2	1	R1031M
1456.589	4.0	921938	TEST_PROBE	n/a	wordpools/wordpool_EN.txt	SLEEVE	SPONGE	3	1	SLEEVE	SPONGE	1	13	[0, 0, 0]	n/a	0	1	0	n/a	n/a	0.0	0	0	0	PAL2	1	R1031M
1456.59	1.137	921939	REC_START	n/a	n/a	n/a	n/a	3	-999	n/a	SPONGE	1	13	[0, 0, 0]	n/a	0	1	0	n/a	n/a	0.0	0	0	0	PAL2	1	R1031M
1457.727	3.871	922507	REC_EVENT	1.137	n/a	SLEEVE	SPONGE	3	1	SLEEVE	SPONGE	1	13	[0, 0, 0]	n/a	0	1	0	n/a	n/a	0.0	0	0	0	PAL2	1	R1031M
1461.598	0.009	924443	REC_END	n/a	n/a	n/a	n/a	3	-999	n/a	n/a	-999	13	[0, 0, 0]	n/a	0	1	0	n/a	n/a	0.0	0	0	0	PAL2	1	R1031M
1461.607	0.25	924447	TEST_ORIENT	n/a	n/a	SEAT	SLIME	4	2	SLIME	SEAT	1	13	[0, 0, 0]	n/a	0	1	0	n/a	n/a	0.0	0	0	0	PAL2	1	R1031M
1462.457	4.0	924872	TEST_PROBE	n/a	wordpools/wordpool_EN.txt	SEAT	SLIME	4	2	SLIME	SEAT	1	13	[0, 0, 0]	n/a	0	1	0	n/a	n/a	0.0	0	0	0	PAL2	1	R1031M
1462.458	0.953	924873	REC_START	n/a	n/a	n/a	n/a	4	-999	n/a	SEAT	1	13	[0, 0, 0]	n/a	0	1	0	n/a	n/a	0.0	0	0	0	PAL2	1	R1031M
1463.411	4.055	925349	REC_EVENT	0.953	n/a	SEAT	SLIME	4	2	SLIME	SEAT	1	13	[0, 0, 0]	n/a	0	1	0	n/a	n/a	0.0	0	0	0	PAL2	1	R1031M
1467.466	0.009	927376	REC_END	n/a	n/a	n/a	n/a	4	-999	n/a	n/a	-999	13	[0, 0, 0]	n/a	0	1	0	n/a	n/a	0.0	0	0	0	PAL2	1	R1031M
1467.475	0.25	927381	TEST_ORIENT	n/a	n/a	SMILE	TRAY	1	3	SMILE	TRAY	1	13	[0, 0, 0]	n/a	0	1	0	n/a	n/a	0.0	0	0	0	PAL2	1	R1031M
1468.376	4.0	927831	TEST_PROBE	n/a	wordpools/wordpool_EN.txt	SMILE	TRAY	1	3	SMILE	TRAY	1	13	[0, 0, 0]	n/a	0	1	0	n/a	n/a	0.0	0	0	0	PAL2	1	R1031M
1468.377	1.752	927832	REC_START	n/a	n/a	n/a	n/a	1	-999	n/a	TRAY	1	13	[0, 0, 0]	n/a	0	1	0	n/a	n/a	0.0	0	0	0	PAL2	1	R1031M
1470.129	3.264	928708	REC_EVENT	1.752	n/a	SMILE	TRAY	1	3	SMILE	TRAY	1	13	[0, 0, 0]	n/a	0	1	0	n/a	n/a	0.0	0	0	0	PAL2	1	R1031M
1473.393	0.017	930340	REC_END	n/a	n/a	n/a	n/a	1	-999	n/a	n/a	-999	13	[0, 0, 0]	n/a	0	1	0	n/a	n/a	0.0	0	0	0	PAL2	1	R1031M
1473.41	0.25	930348	TEST_ORIENT	n/a	n/a	BEE	CAT	2	4	BEE	CAT	1	13	[0, 0, 0]	n/a	0	1	0	n/a	n/a	0.0	0	0	0	PAL2	1	R1031M
1474.327	4.0	930807	TEST_PROBE	n/a	wordpools/wordpool_EN.txt	BEE	CAT	2	4	BEE	CAT	1	13	[0, 0, 0]	n/a	0	1	0	n/a	n/a	0.0	0	0	0	PAL2	1	R1031M
1474.328	2.73	930807	REC_START	n/a	n/a	n/a	n/a	2	-999	n/a	CAT	1	13	[0, 0, 0]	n/a	0	1	0	n/a	n/a	0.0	0	0	0	PAL2	1	R1031M
1477.058	2.278	932172	REC_EVENT	2.73	n/a	BEE	CAT	2	4	BEE	CAT	1	13	[0, 0, 0]	n/a	0	1	0	n/a	n/a	0.0	0	0	0	PAL2	1	R1031M
1479.336	0.009	933311	REC_END	n/a	n/a	n/a	n/a	2	-999	n/a	n/a	-999	13	[0, 0, 0]	n/a	0	1	0	n/a	n/a	0.0	0	0	0	PAL2	1	R1031M
1479.345	0.25	933315	TEST_ORIENT	n/a	n/a	DOG	BAT	5	5	BAT	DOG	1	13	[0, 0, 0]	n/a	0	1	0	n/a	n/a	0.0	0	0	0	PAL2	1	R1031M
1480.378	4.0	933832	TEST_PROBE	n/a	wordpools/wordpool_EN.txt	DOG	BAT	5	5	BAT	DOG	1	13	[0, 0, 0]	n/a	0	1	0	n/a	n/a	0.0	0	0	0	PAL2	1	R1031M
1480.379	1.446	933832	REC_START	n/a	n/a	n/a	n/a	5	-999	n/a	DOG	1	13	[0, 0, 0]	n/a	0	1	0	n/a	n/a	0.0	0	0	0	PAL2	1	R1031M
1481.825	3.562	934555	REC_EVENT	1.446	n/a	DOG	BAT	5	5	BAT	DOG	1	13	[0, 0, 0]	n/a	0	1	0	n/a	n/a	0.0	0	0	0	PAL2	1	R1031M
1485.387	0.009	936336	REC_END	n/a	n/a	n/a	n/a	5	-999	n/a	n/a	-999	13	[0, 0, 0]	n/a	0	1	0	n/a	n/a	0.0	0	0	0	PAL2	1	R1031M
1485.396	0.25	936341	TEST_ORIENT	n/a	n/a	MAP	MAZE	6	6	MAP	MAZE	1	13	[0, 0, 0]	n/a	0	1	0	n/a	n/a	0.0	0	0	0	PAL2	1	R1031M
1486.246	4.0	936765	TEST_PROBE	n/a	wordpools/wordpool_EN.txt	MAP	MAZE	6	6	MAP	MAZE	1	13	[0, 0, 0]	n/a	0	1	0	n/a	n/a	0.0	0	0	0	PAL2	1	R1031M
1486.247	0.992	936766	REC_START	n/a	n/a	n/a	n/a	6	-999	n/a	MAZE	1	13	[0, 0, 0]	n/a	0	1	0	n/a	n/a	0.0	0	0	0	PAL2	1	R1031M
1487.239	4.016	937262	REC_EVENT	0.992	n/a	MAP	MAZE	6	6	MAP	MAZE	1	13	[0, 0, 0]	n/a	0	1	0	n/a	n/a	0.0	0	0	0	PAL2	1	R1031M
1491.255	2.166	939270	REC_END	n/a	n/a	n/a	n/a	6	-999	n/a	n/a	-999	13	[0, 0, 0]	n/a	0	1	0	n/a	n/a	0.0	0	0	0	PAL2	1	R1031M
1493.421	10.445	940353	ENCODING_START	n/a	n/a	n/a	n/a	0	-999	n/a	n/a	-999	14	[0, 0, 0]	n/a	0	0	0	n/a	n/a	0.0	0	0	0	PAL2	1	R1031M
1503.866	0.25	945575	STUDY_ORIENT	n/a	n/a	RICE	CUBE	1	3	RICE	CUBE	1	14	[0, 0, 0]	n/a	0	0	0	n/a	n/a	0.0	0	0	0	PAL2	1	R1031M
1504.733	4.0	946008	STUDY_PAIR	n/a	wordpools/wordpool_EN.txt	RICE	CUBE	1	3	RICE	CUBE	1	14	[0, 0, 0]	n/a	0	0	0	n/a	n/a	0.0	0	0	0	PAL2	1	R1031M
1509.751	0.25	948517	STUDY_ORIENT	n/a	n/a	CLOTH	BAG	2	4	BAG	CLOTH	1	14	[0, 0, 0]	n/a	0	0	0	n/a	n/a	0.0	0	0	0	PAL2	1	R1031M
1510.717	4.0	949000	STUDY_PAIR	n/a	wordpools/wordpool_EN.txt	CLOTH	BAG	2	4	BAG	CLOTH	1	14	[0, 0, 0]	n/a	0	0	0	n/a	n/a	0.0	0	0	0	PAL2	1	R1031M
1515.752	0.25	951517	STUDY_ORIENT	n/a	n/a	BADGE	JUICE	3	5	BADGE	SPARK	0	14	[0, 0, 0]	n/a	0	0	0	n/a	n/a	0.0	0	0	0	PAL2	1	R1031M
1516.651	4.0	951966	STUDY_PAIR	n/a	wordpools/wordpool_EN.txt	BADGE	JUICE	3	5	BADGE	SPARK	0	14	[0, 0, 0]	n/a	0	0	0	n/a	n/a	0.0	0	0	0	PAL2	1	R1031M
1521.669	0.25	954475	STUDY_ORIENT	n/a	n/a	BEACH	LAMB	4	2	LAMB	CLEAT	0	14	[0, 0, 0]	n/a	0	0	0	n/a	n/a	0.0	0	0	0	PAL2	1	R1031M
1522.603	4.0	954942	STUDY_PAIR	n/a	wordpools/wordpool_EN.txt	BEACH	LAMB	4	2	LAMB	CLEAT	0	14	[0, 0, 0]	n/a	0	0	0	n/a	n/a	0.0	0	0	0	PAL2	1	R1031M
1527.637	0.25	957459	STUDY_ORIENT	n/a	n/a	STORM	HEN	5	1	STORM	n/a	0	14	[0, 0, 0]	n/a	0	0	0	n/a	n/a	0.0	0	0	0	PAL2	1	R1031M
1528.438	4.0	957859	STUDY_PAIR	n/a	wordpools/wordpool_EN.txt	STORM	HEN	5	1	STORM	n/a	0	14	[0, 0, 0]	n/a	0	0	0	n/a	n/a	0.0	0	0	0	PAL2	1	R1031M
1533.455	0.25	960368	STUDY_ORIENT	n/a	n/a	SPARK	CHIN	6	6	CHIN	SPARK	1	14	[0, 0, 0]	n/a	0	0	0	n/a	n/a	0.0	0	0	0	PAL2	1	R1031M
1534.373	4.0	960827	STUDY_PAIR	n/a	wordpools/wordpool_EN.txt	SPARK	CHIN	6	6	CHIN	SPARK	1	14	[0, 0, 0]	n/a	0	0	0	n/a	n/a	0.0	0	0	0	PAL2	1	R1031M
1538.391	0.999	962835	START	n/a	n/a	n/a	n/a	-999	-999	n/a	n/a	-999	14	[-999, -999, -999]	n/a	0	0	0	n/a	n/a	0.0	0	0	0	PAL2	1	R1031M
1539.39	0.017	963335	MATH_START	n/a	n/a	n/a	n/a	-999	-999	n/a	n/a	-999	14	[0, 0, 0]	n/a	0	0	0	n/a	n/a	0.0	0	0	0	PAL2	1	R1031M
1539.407	2.684	963343	PROB	2.654	n/a	n/a	n/a	-999	-999	n/a	n/a	-999	14	[1, 6, 3]	10	0	0	0	n/a	n/a	0.0	0	0	0	PAL2	1	R1031M
1542.091	3.067	964685	PROB	3.042	n/a	n/a	n/a	-999	-999	n/a	n/a	-999	14	[7, 4, 5]	16	0	0	0	n/a	n/a	0.0	0	0	0	PAL2	1	R1031M
1545.158	2.717	966218	PROB	2.695	n/a	n/a	n/a	-999	-999	n/a	n/a	-999	14	[3, 5, 6]	14	0	0	0	n/a	n/a	0.0	0	0	0	PAL2	1	R1031M
1547.875	2.484	967577	PROB	2.458	n/a	n/a	n/a	-999	-999	n/a	n/a	-999	14	[2, 5, 8]	15	0	0	0	n/a	n/a	0.0	0	0	0	PAL2	1	R1031M
1550.359	3.084	968819	PROB	3.054	n/a	n/a	n/a	-999	-999	n/a	n/a	-999	14	[8, 1, 4]	13	0	0	0	n/a	n/a	0.0	0	0	0	PAL2	1	R1031M
1553.443	2.384	970361	PROB	2.354	n/a	n/a	n/a	-999	-999	n/a	n/a	-999	14	[3, 2, 7]	12	0	0	0	n/a	n/a	0.0	0	0	0	PAL2	1	R1031M
1555.827	2.45	971552	PROB	2.418	n/a	n/a	n/a	-999	-999	n/a	n/a	-999	14	[4, 1, 5]	10	0	0	0	n/a	n/a	0.0	0	0	0	PAL2	1	R1031M
1558.277	2.728	972777	PROB	2.728	n/a	n/a	n/a	-999	-999	n/a	n/a	-999	14	[9, 2, 9]	20	0	0	0	n/a	n/a	0.0	0	0	0	PAL2	1	R1031M
1561.005	0.006	974141	STOP	n/a	n/a	n/a	n/a	-999	-999	n/a	n/a	-999	14	[-999, -999, -999]	n/a	0	0	0	n/a	n/a	0.0	0	0	0	PAL2	1	R1031M
1561.011	0.0	974144	MATH_END	n/a	n/a	n/a	n/a	-999	-999	n/a	n/a	-999	14	[0, 0, 0]	n/a	0	0	0	n/a	n/a	0.0	0	0	0	PAL2	1	R1031M
1561.011	0.017	974144	TEST_START	n/a	n/a	n/a	n/a	-999	-999	n/a	n/a	-999	14	[0, 0, 0]	n/a	0	0	0	n/a	n/a	0.0	0	0	0	PAL2	1	R1031M
1561.028	0.25	974153	TEST_ORIENT	n/a	n/a	STORM	HEN	5	1	STORM	n/a	0	14	[0, 0, 0]	n/a	0	0	0	n/a	n/a	0.0	0	0	0	PAL2	1	R1031M
1561.961	4.0	974619	TEST_PROBE	n/a	wordpools/wordpool_EN.txt	STORM	HEN	5	1	STORM	n/a	0	14	[0, 0, 0]	n/a	0	0	0	n/a	n/a	0.0	0	0	0	PAL2	1	R1031M
1561.962	4.789	974620	REC_START	n/a	n/a	n/a	n/a	5	-999	n/a	n/a	0	14	[0, 0, 0]	n/a	0	0	0	n/a	n/a	0.0	0	0	0	PAL2	1	R1031M
1566.751	0.219	977014	REC_EVENT	4.789	n/a	STORM	HEN	5	1	STORM	<>	0	14	[0, 0, 0]	n/a	0	0	0	n/a	n/a	0.0	0	0	0	PAL2	1	R1031M
1566.97	0.009	977123	REC_END	n/a	n/a	n/a	n/a	5	-999	n/a	n/a	-999	14	[0, 0, 0]	n/a	0	0	0	n/a	n/a	0.0	0	0	0	PAL2	1	R1031M
1566.979	0.25	977128	TEST_ORIENT	n/a	n/a	BEACH	LAMB	4	2	LAMB	CLEAT	0	14	[0, 0, 0]	n/a	0	0	0	n/a	n/a	0.0	0	0	0	PAL2	1	R1031M
