onset	duration	sample	trial_type	response_time	stim_file	study_1	study_2	serialpos	probepos	probe_word	resp_word	correct	list	test	answer	stimulation	stim_list	stim_duration	anode_label	cathode_label	amplitude	pulse_freq	n_pulses	pulse_width	experiment	session	subject
0.0	67.095	39977	SESS_START	n/a	n/a	n/a	n/a	-999	-999	n/a	n/a	-999	-999	[0, 0, 0]	n/a	0	0	0	n/a	n/a	0.0	0	0	0	PAL2	0	R1028M
67.095	1.016	73521	START	n/a	n/a	n/a	n/a	-999	-999	n/a	n/a	-999	-1	[-999, -999, -999]	n/a	0	-999	0	n/a	n/a	0.0	0	0	0	PAL2	0	R1028M
68.111	133.267	74029	PROB	133.267	n/a	n/a	n/a	-999	-999	n/a	n/a	-999	-1	[1, 4, 2]	7	0	-999	0	n/a	n/a	0.0	0	0	0	PAL2	0	R1028M
201.378	81.768	140655	STOP	n/a	n/a	n/a	n/a	-999	-999	n/a	n/a	-999	-1	[-999, -999, -999]	n/a	0	-999	0	n/a	n/a	0.0	0	0	0	PAL2	0	R1028M
283.146	10.443	181535	ENCODING_START	n/a	n/a	n/a	n/a	0	-999	n/a	n/a	-999	1	[0, 0, 0]	n/a	0	1	0	n/a	n/a	0.0	0	0	0	PAL2	0	R1028M
293.589	0.25	186756	STUDY_ORIENT	n/a	n/a	SIGN	BEAK	1	1	BEAK	SIGN	1	1	[0, 0, 0]	n/a	0	1	0	n/a	n/a	0.0	0	0	0	PAL2	0	R1028M
294.203	4.6	187063	STIM_ON	n/a	n/a	SIGN	BEAK	1	1	BEAK	SIGN	1	1	[0, 0, 0]	n/a	1	1	4600	RTG1	RTG10	1000.0	50	230	300	PAL2	0	R1028M
294.405	4.0	187164	STUDY_PAIR	n/a	wordpools/wordpool_EN.txt	SIGN	BEAK	1	1	BEAK	SIGN	1	1	[0, 0, 0]	n/a	1	1	4600	RTG1	RTG10	1000.0	50	230	300	PAL2	0	R1028M
299.423	0.25	189673	STUDY_ORIENT	n/a	n/a	CASH	CAR	2	2	CAR	CASH	1	1	[0, 0, 0]	n/a	0	1	0	n/a	n/a	0.0	0	0	0	PAL2	0	R1028M
300.341	4.0	190132	STUDY_PAIR	n/a	wordpools/wordpool_EN.txt	CASH	CAR	2	2	CAR	CASH	1	1	[0, 0, 0]	n/a	0	1	0	n/a	n/a	0.0	0	0	0	PAL2	0	R1028M
305.375	0.25	192649	STUDY_ORIENT	n/a	n/a	ELF	SHOE	3	3	ELF	SHOE	1	1	[0, 0, 0]	n/a	0	1	0	n/a	n/a	0.0	0	0	0	PAL2	0	R1028M
305.945	4.6	192933	STIM_ON	n/a	n/a	ELF	SHOE	3	3	ELF	SHOE	1	1	[0, 0, 0]	n/a	1	1	4600	RTG1	RTG10	1000.0	50	230	300	PAL2	0	R1028M
306.159	4.0	193040	STUDY_PAIR	n/a	wordpools/wordpool_EN.txt	ELF	SHOE	3	3	ELF	SHOE	1	1	[0, 0, 0]	n/a	1	1	4600	RTG1	RTG10	1000.0	50	230	300	PAL2	0	R1028M
311.193	0.25	195557	STUDY_ORIENT	n/a	n/a	EEL	SKY	4	6	EEL	SKY	1	1	[0, 0, 0]	n/a	0	1	0	n/a	n/a	0.0	0	0	0	PAL2	0	R1028M
311.993	4.0	195957	STUDY_PAIR	n/a	wordpools/wordpool_EN.txt	EEL	SKY	4	6	EEL	SKY	1	1	[0, 0, 0]	n/a	0	1	0	n/a	n/a	0.0	0	0	0	PAL2	0	R1028M
317.011	0.25	198466	STUDY_ORIENT	n/a	n/a	KEY	SUN	5	5	SUN	KEY	1	1	[0, 0, 0]	n/a	0	1	0	n/a	n/a	0.0	0	0	0	PAL2	0	R1028M
317.688	4.6	198804	STIM_ON	n/a	n/a	KEY	SUN	5	5	SUN	KEY	1	1	[0, 0, 0]	n/a	1	1	4600	RTG1	RTG10	1000.0	50	230	300	PAL2	0	R1028M
317.894	4.0	198907	STUDY_PAIR	n/a	wordpools/wordpool_EN.txt	KEY	SUN	5	5	SUN	KEY	1	1	[0, 0, 0]	n/a	1	1	4600	RTG1	RTG10	1000.0	50	230	300	PAL2	0	R1028M
322.929	0.25	201425	STUDY_ORIENT	n/a	n/a	CROWN	BOWL	6	4	BOWL	CROWN	1	1	[0, 0, 0]	n/a	0	1	0	n/a	n/a	0.0	0	0	0	PAL2	0	R1028M
323.846	4.0	201883	STUDY_PAIR	n/a	wordpools/wordpool_EN.txt	CROWN	BOWL	6	4	BOWL	CROWN	1	1	[0, 0, 0]	n/a	0	1	0	n/a	n/a	0.0	0	0	0	PAL2	0	R1028M
327.863	1.0	203891	START	n/a	n/a	n/a	n/a	-999	-999	n/a	n/a	-999	1	[-999, -999, -999]	n/a	0	1	0	n/a	n/a	0.0	0	0	0	PAL2	0	R1028M
328.863	0.017	204391	MATH_START	n/a	n/a	n/a	n/a	-999	-999	n/a	n/a	-999	1	[0, 0, 0]	n/a	0	1	0	n/a	n/a	0.0	0	0	0	PAL2	0	R1028M
328.88	4.501	204400	PROB	4.466	n/a	n/a	n/a	-999	-999	n/a	n/a	-999	1	[7, 5, 2]	14	0	1	0	n/a	n/a	0.0	0	0	0	PAL2	0	R1028M
333.381	2.584	206650	PROB	2.557	n/a	n/a	n/a	-999	-999	n/a	n/a	-999	1	[1, 4, 4]	9	0	1	0	n/a	n/a	0.0	0	0	0	PAL2	0	R1028M
335.965	3.484	207942	PROB	3.452	n/a	n/a	n/a	-999	-999	n/a	n/a	-999	1	[5, 7, 3]	15	0	1	0	n/a	n/a	0.0	0	0	0	PAL2	0	R1028M
339.449	3.084	209684	PROB	3.057	n/a	n/a	n/a	-999	-999	n/a	n/a	-999	1	[8, 1, 4]	13	0	1	0	n/a	n/a	0.0	0	0	0	PAL2	0	R1028M
342.533	2.983	211226	PROB	2.949	n/a	n/a	n/a	-999	-999	n/a	n/a	-999	1	[6, 1, 5]	12	0	1	0	n/a	n/a	0.0	0	0	0	PAL2	0	R1028M
345.516	2.934	212717	PROB	2.934	n/a	n/a	n/a	-999	-999	n/a	n/a	-999	1	[9, 5, 5]	19	0	1	0	n/a	n/a	0.0	0	0	0	PAL2	0	R1028M
348.45	0.017	214184	STOP	n/a	n/a	n/a	n/a	-999	-999	n/a	n/a	-999	1	[-999, -999, -999]	n/a	0	1	0	n/a	n/a	0.0	0	0	0	PAL2	0	R1028M
348.467	0.0	214192	TEST_START	n/a	n/a	n/a	n/a	-999	-999	n/a	n/a	-999	1	[0, 0, 0]	n/a	0	1	0	n/a	n/a	0.0	0	0	0	PAL2	0	R1028M
348.467	0.017	214192	MATH_END	n/a	n/a	n/a	n/a	-999	-999	n/a	n/a	-999	1	[0, 0, 0]	n/a	0	1	0	n/a	n/a	0.0	0	0	0	PAL2	0	R1028M
348.484	0.25	214201	TEST_ORIENT	n/a	n/a	SIGN	BEAK	1	1	BEAK	SIGN	1	1	[0, 0, 0]	n/a	0	1	0	n/a	n/a	0.0	0	0	0	PAL2	0	R1028M
349.484	4.0	214701	TEST_PROBE	n/a	wordpools/wordpool_EN.txt	SIGN	BEAK	1	1	BEAK	SIGN	1	1	[0, 0, 0]	n/a	0	1	0	n/a	n/a	0.0	0	0	0	PAL2	0	R1028M
349.485	1.052	214701	REC_START	n/a	n/a	n/a	n/a	1	-999	n/a	SIGN	1	1	[0, 0, 0]	n/a	0	1	0	n/a	n/a	0.0	0	0	0	PAL2	0	R1028M
350.537	3.973	215227	REC_EVENT	1.052	n/a	SIGN	BEAK	1	1	BEAK	SIGN	1	1	[0, 0, 0]	n/a	0	1	0	n/a	n/a	0.0	0	0	0	PAL2	0	R1028M
354.51	0.008	217214	REC_END	n/a	n/a	n/a	n/a	1	-999	n/a	n/a	-999	1	[0, 0, 0]	n/a	0	1	0	n/a	n/a	0.0	0	0	0	PAL2	0	R1028M
354.518	0.25	217218	TEST_ORIENT	n/a	n/a	CASH	CAR	2	2	CAR	CASH	1	1	[0, 0, 0]	n/a	0	1	0	n/a	n/a	0.0	0	0	0	PAL2	0	R1028M
355.518	4.0	217717	TEST_PROBE	n/a	wordpools/wordpool_EN.txt	CASH	CAR	2	2	CAR	CASH	1	1	[0, 0, 0]	n/a	0	1	0	n/a	n/a	0.0	0	0	0	PAL2	0	R1028M
355.519	0.877	217718	REC_START	n/a	n/a	n/a	n/a	2	-999	n/a	CASH	1	1	[0, 0, 0]	n/a	0	1	0	n/a	n/a	0.0	0	0	0	PAL2	0	R1028M
356.396	4.131	218156	REC_EVENT	0.877	n/a	CASH	CAR	2	2	CAR	CASH	1	1	[0, 0, 0]	n/a	0	1	0	n/a	n/a	0.0	0	0	0	PAL2	0	R1028M
360.527	0.009	220222	REC_END	n/a	n/a	n/a	n/a	2	-999	n/a	n/a	-999	1	[0, 0, 0]	n/a	0	1	0	n/a	n/a	0.0	0	0	0	PAL2	0	R1028M
360.536	0.25	220226	TEST_ORIENT	n/a	n/a	ELF	SHOE	3	3	ELF	SHOE	1	1	[0, 0, 0]	n/a	0	1	0	n/a	n/a	0.0	0	0	0	PAL2	0	R1028M
361.503	4.0	220710	TEST_PROBE	n/a	wordpools/wordpool_EN.txt	ELF	SHOE	3	3	ELF	SHOE	1	1	[0, 0, 0]	n/a	0	1	0	n/a	n/a	0.0	0	0	0	PAL2	0	R1028M
361.503	0.815	220710	REC_START	n/a	n/a	n/a	n/a	3	-999	n/a	SHOE	1	1	[0, 0, 0]	n/a	0	1	0	n/a	n/a	0.0	0	0	0	PAL2	0	R1028M
362.318	4.202	221117	REC_EVENT	0.815	n/a	ELF	SHOE	3	3	ELF	SHOE	1	1	[0, 0, 0]	n/a	0	1	0	n/a	n/a	0.0	0	0	0	PAL2	0	R1028M
366.52	0.017	223218	REC_END	n/a	n/a	n/a	n/a	3	-999	n/a	n/a	-999	1	[0, 0, 0]	n/a	0	1	0	n/a	n/a	0.0	0	0	0	PAL2	0	R1028M
366.537	0.25	223226	TEST_ORIENT	n/a	n/a	CROWN	BOWL	6	4	BOWL	CROWN	1	1	[0, 0, 0]	n/a	0	1	0	n/a	n/a	0.0	0	0	0	PAL2	0	R1028M
367.454	4.0	223685	TEST_PROBE	n/a	wordpools/wordpool_EN.txt	CROWN	BOWL	6	4	BOWL	CROWN	1	1	[0, 0, 0]	n/a	0	1	0	n/a	n/a	0.0	0	0	0	PAL2	0	R1028M
367.455	0.868	223685	REC_START	n/a	n/a	n/a	n/a	6	-999	n/a	CROWN	1	1	[0, 0, 0]	n/a	0	1	0	n/a	n/a	0.0	0	0	0	PAL2	0	R1028M
368.323	4.143	224119	REC_EVENT	0.868	n/a	CROWN	BOWL	6	4	BOWL	CROWN	1	1	[0, 0, 0]	n/a	0	1	0	n/a	n/a	0.0	0	0	0	PAL2	0	R1028M
372.466	0.022	226191	REC_END	n/a	n/a	n/a	n/a	6	-999	n/a	n/a	-999	1	[0, 0, 0]	n/a	0	1	0	n/a	n/a	0.0	0	0	0	PAL2	0	R1028M
372.488	0.25	226202	TEST_ORIENT	n/a	n/a	KEY	SUN	5	5	SUN	KEY	1	1	[0, 0, 0]	n/a	0	1	0	n/a	n/a	0.0	0	0	0	PAL2	0	R1028M
373.439	4.0	226677	TEST_PROBE	n/a	wordpools/wordpool_EN.txt	KEY	SUN	5	5	SUN	KEY	1	1	[0, 0, 0]	n/a	0	1	0	n/a	n/a	0.0	0	0	0	PAL2	0	R1028M
373.439	0.838	226677	REC_START	n/a	n/a	n/a	n/a	5	-999	n/a	KEY	1	1	[0, 0, 0]	n/a	0	1	0	n/a	n/a	0.0	0	0	0	PAL2	0	R1028M
374.277	4.187	227096	REC_EVENT	0.838	n/a	KEY	SUN	5	5	SUN	KEY	1	1	[0, 0, 0]	n/a	0	1	0	n/a	n/a	0.0	0	0	0	PAL2	0	R1028M
378.464	0.009	229189	REC_END	n/a	n/a	n/a	n/a	5	-999	n/a	n/a	-999	1	[0, 0, 0]	n/a	0	1	0	n/a	n/a	0.0	0	0	0	PAL2	0	R1028M
378.473	0.25	229194	TEST_ORIENT	n/a	n/a	EEL	SKY	4	6	EEL	SKY	1	1	[0, 0, 0]	n/a	0	1	0	n/a	n/a	0.0	0	0	0	PAL2	0	R1028M
379.373	4.0	229644	TEST_PROBE	n/a	wordpools/wordpool_EN.txt	EEL	SKY	4	6	EEL	SKY	1	1	[0, 0, 0]	n/a	0	1	0	n/a	n/a	0.0	0	0	0	PAL2	0	R1028M
379.374	1.36	229644	REC_START	n/a	n/a	n/a	n/a	4	-999	n/a	SKY	1	1	[0, 0, 0]	n/a	0	1	0	n/a	n/a	0.0	0	0	0	PAL2	0	R1028M
380.734	3.648	230324	REC_EVENT	1.36	n/a	EEL	SKY	4	6	EEL	SKY	1	1	[0, 0, 0]	n/a	0	1	0	n/a	n/a	0.0	0	0	0	PAL2	0	R1028M
384.382	4.276	232148	REC_END	n/a	n/a	n/a	n/a	4	-999	n/a	n/a	-999	1	[0, 0, 0]	n/a	0	1	0	n/a	n/a	0.0	0	0	0	PAL2	0	R1028M
388.658	10.452	234286	ENCODING_START	n/a	n/a	n/a	n/a	0	-999	n/a	n/a	-999	2	[0, 0, 0]	n/a	0	1	0	n/a	n/a	0.0	0	0	0	PAL2	0	R1028M
399.11	0.25	239511	STUDY_ORIENT	n/a	n/a	CONE	MUG	1	1	CONE	MUG	1	2	[0, 0, 0]	n/a	0	1	0	n/a	n/a	0.0	0	0	0	PAL2	0	R1028M
400.077	4.0	239995	STUDY_PAIR	n/a	wordpools/wordpool_EN.txt	CONE	MUG	1	1	CONE	MUG	1	2	[0, 0, 0]	n/a	0	1	0	n/a	n/a	0.0	0	0	0	PAL2	0	R1028M
405.095	0.25	242503	STUDY_ORIENT	n/a	n/a	BOOK	POLE	2	6	BOOK	POLE	1	2	[0, 0, 0]	n/a	0	1	0	n/a	n/a	0.0	0	0	0	PAL2	0	R1028M
405.962	4.0	242937	STUDY_PAIR	n/a	wordpools/wordpool_EN.txt	BOOK	POLE	2	6	BOOK	POLE	1	2	[0, 0, 0]	n/a	0	1	0	n/a	n/a	0.0	0	0	0	PAL2	0	R1028M
410.996	0.25	245454	STUDY_ORIENT	n/a	n/a	YARD	COW	3	3	COW	YARD	1	2	[0, 0, 0]	n/a	0	1	0	n/a	n/a	0.0	0	0	0	PAL2	0	R1028M
411.78	4.0	245846	STUDY_PAIR	n/a	wordpools/wordpool_EN.txt	YARD	COW	3	3	COW	YARD	1	2	[0, 0, 0]	n/a	0	1	0	n/a	n/a	0.0	0	0	0	PAL2	0	R1028M
416.814	0.25	248362	STUDY_ORIENT	n/a	n/a	WEED	HOOK	4	4	HOOK	WEED	1	2	[0, 0, 0]	n/a	0	1	0	n/a	n/a	0.0	0	0	0	PAL2	0	R1028M
417.664	4.0	248787	STUDY_PAIR	n/a	wordpools/wordpool_EN.txt	WEED	HOOK	4	4	HOOK	WEED	1	2	[0, 0, 0]	n/a	0	1	0	n/a	n/a	0.0	0	0	0	PAL2	0	R1028M
422.682	0.25	251296	STUDY_ORIENT	n/a	n/a	ROPE	SPRING	5	5	SPRING	ROPE	1	2	[0, 0, 0]	n/a	0	1	0	n/a	n/a	0.0	0	0	0	PAL2	0	R1028M
423.632	4.0	251771	STUDY_PAIR	n/a	wordpools/wordpool_EN.txt	ROPE	SPRING	5	5	SPRING	ROPE	1	2	[0, 0, 0]	n/a	0	1	0	n/a	n/a	0.0	0	0	0	PAL2	0	R1028M
428.666	0.25	254288	STUDY_ORIENT	n/a	n/a	STRING	DOOR	6	2	STRING	DOOR	1	2	[0, 0, 0]	n/a	0	1	0	n/a	n/a	0.0	0	0	0	PAL2	0	R1028M
429.6	4.0	254755	STUDY_PAIR	n/a	wordpools/wordpool_EN.txt	STRING	DOOR	6	2	STRING	DOOR	1	2	[0, 0, 0]	n/a	0	1	0	n/a	n/a	0.0	0	0	0	PAL2	0	R1028M
433.618	0.999	256763	START	n/a	n/a	n/a	n/a	-999	-999	n/a	n/a	-999	2	[-999, -999, -999]	n/a	0	1	0	n/a	n/a	0.0	0	0	0	PAL2	0	R1028M
434.617	0.017	257263	MATH_START	n/a	n/a	n/a	n/a	-999	-999	n/a	n/a	-999	2	[0, 0, 0]	n/a	0	1	0	n/a	n/a	0.0	0	0	0	PAL2	0	R1028M
434.634	4.984	257271	PROB	4.952	n/a	n/a	n/a	-999	-999	n/a	n/a	-999	2	[3, 8, 6]	17	0	1	0	n/a	n/a	0.0	0	0	0	PAL2	0	R1028M
439.618	3.084	259763	PROB	3.064	n/a	n/a	n/a	-999	-999	n/a	n/a	-999	2	[7, 7, 7]	21	0	1	0	n/a	n/a	0.0	0	0	0	PAL2	0	R1028M
442.702	3.351	261305	PROB	3.332	n/a	n/a	n/a	-999	-999	n/a	n/a	-999	2	[8, 3, 8]	19	0	1	0	n/a	n/a	0.0	0	0	0	PAL2	0	R1028M
446.053	5.551	262980	PROB	5.525	n/a	n/a	n/a	-999	-999	n/a	n/a	-999	2	[7, 8, 7]	22	0	1	0	n/a	n/a	0.0	0	0	0	PAL2	0	R1028M
451.604	4.566	265756	PROB	4.566	n/a	n/a	n/a	-999	-999	n/a	n/a	-999	2	[1, 9, 4]	14	0	1	0	n/a	n/a	0.0	0	0	0	PAL2	0	R1028M
456.17	0.019	268038	STOP	n/a	n/a	n/a	n/a	-999	-999	n/a	n/a	-999	2	[-999, -999, -999]	n/a	0	1	0	n/a	n/a	0.0	0	0	0	PAL2	0	R1028M
456.189	0.0	268048	TEST_START	n/a	n/a	n/a	n/a	-999	-999	n/a	n/a	-999	2	[0, 0, 0]	n/a	0	1	0	n/a	n/a	0.0	0	0	0	PAL2	0	R1028M
456.189	0.016	268048	MATH_END	n/a	n/a	n/a	n/a	-999	-999	n/a	n/a	-999	2	[0, 0, 0]	n/a	0	1	0	n/a	n/a	0.0	0	0	0	PAL2	0	R1028M
456.205	0.25	268056	TEST_ORIENT	n/a	n/a	CONE	MUG	1	1	CONE	MUG	1	2	[0, 0, 0]	n/a	0	1	0	n/a	n/a	0.0	0	0	0	PAL2	0	R1028M
457.205	4.0	268556	TEST_PROBE	n/a	wordpools/wordpool_EN.txt	CONE	MUG	1	1	CONE	MUG	1	2	[0, 0, 0]	n/a	0	1	0	n/a	n/a	0.0	0	0	0	PAL2	0	R1028M
457.206	1.102	268556	REC_START	n/a	n/a	n/a	n/a	1	-999	n/a	MUG	1	2	[0, 0, 0]	n/a	0	1	0	n/a	n/a	0.0	0	0	0	PAL2	0	R1028M
458.308	3.906	269107	REC_EVENT	1.102	n/a	CONE	MUG	1	1	CONE	MUG	1	2	[0, 0, 0]	n/a	0	1	0	n/a	n/a	0.0	0	0	0	PAL2	0	R1028M
462.214	0.009	271060	REC_END	n/a	n/a	n/a	n/a	1	-999	n/a	n/a	-999	2	[0, 0, 0]	n/a	0	1	0	n/a	n/a	0.0	0	0	0	PAL2	0	R1028M
462.223	0.25	271065	TEST_ORIENT	n/a	n/a	STRING	DOOR	6	2	STRING	DOOR	1	2	[0, 0, 0]	n/a	0	1	0	n/a	n/a	0.0	0	0	0	PAL2	0	R1028M
463.041	4.6	271473	STIM_ON	n/a	n/a	STRING	DOOR	6	2	STRING	DOOR	1	2	[0, 0, 0]	n/a	1	1	4600	RTG1	RTG10	1000.0	50	230	300	PAL2	0	R1028M
463.257	4.0	271581	TEST_PROBE	n/a	wordpools/wordpool_EN.txt	STRING	DOOR	6	2	STRING	DOOR	1	2	[0, 0, 0]	n/a	1	1	4600	RTG1	RTG10	1000.0	50	230	300	PAL2	0	R1028M
463.257	1.475	271581	REC_START	n/a	n/a	n/a	n/a	6	-999	n/a	DOOR	1	2	[0, 0, 0]	n/a	1	1	4600	RTG1	RTG10	1000.0	50	230	300	PAL2	0	R1028M
464.732	3.542	272319	REC_EVENT	1.475	n/a	STRING	DOOR	6	2	STRING	DOOR	1	2	[0, 0, 0]	n/a	1	1	4600	RTG1	RTG10	1000.0	50	230	300	PAL2	0	R1028M
468.274	0.017	274090	REC_END	n/a	n/a	n/a	n/a	6	-999	n/a	n/a	-999	2	[0, 0, 0]	n/a	0	1	0	n/a	n/a	0.0	0	0	0	PAL2	0	R1028M
468.291	0.25	274098	TEST_ORIENT	n/a	n/a	YARD	COW	3	3	COW	YARD	1	2	[0, 0, 0]	n/a	0	1	0	n/a	n/a	0.0	0	0	0	PAL2	0	R1028M
469.324	4.0	274615	TEST_PROBE	n/a	wordpools/wordpool_EN.txt	YARD	COW	3	3	COW	YARD	1	2	[0, 0, 0]	n/a	0	1	0	n/a	n/a	0.0	0	0	0	PAL2	0	R1028M
469.325	0.895	274615	REC_START	n/a	n/a	n/a	n/a	3	-999	n/a	YARD	1	2	[0, 0, 0]	n/a	0	1	0	n/a	n/a	0.0	0	0	0	PAL2	0	R1028M
470.22	4.113	275063	REC_EVENT	0.895	n/a	YARD	COW	3	3	COW	YARD	1	2	[0, 0, 0]	n/a	0	1	0	n/a	n/a	0.0	0	0	0	PAL2	0	R1028M
474.333	0.009	277119	REC_END	n/a	n/a	n/a	n/a	3	-999	n/a	n/a	-999	2	[0, 0, 0]	n/a	0	1	0	n/a	n/a	0.0	0	0	0	PAL2	0	R1028M
474.342	0.25	277123	TEST_ORIENT	n/a	n/a	WEED	HOOK	4	4	HOOK	WEED	1	2	[0, 0, 0]	n/a	0	1	0	n/a	n/a	0.0	0	0	0	PAL2	0	R1028M
474.952	4.6	277428	STIM_ON	n/a	n/a	WEED	HOOK	4	4	HOOK	WEED	1	2	[0, 0, 0]	n/a	1	1	4600	RTG1	RTG10	1000.0	50	230	300	PAL2	0	R1028M
475.159	0.0	277532	REC_START	n/a	n/a	n/a	n/a	4	-999	n/a	WEED	1	2	[0, 0, 0]	n/a	1	1	4600	RTG1	RTG10	1000.0	50	230	300	PAL2	0	R1028M
475.159	4.0	277532	TEST_PROBE	n/a	wordpools/wordpool_EN.txt	WEED	HOOK	4	4	HOOK	WEED	1	2	[0, 0, 0]	n/a	1	1	4600	RTG1	RTG10	1000.0	50	230	300	PAL2	0	R1028M
476.188	3.988	278046	REC_EVENT	1.029	n/a	WEED	HOOK	4	4	HOOK	WEED	1	2	[0, 0, 0]	n/a	1	1	4600	RTG1	RTG10	1000.0	50	230	300	PAL2	0	R1028M
480.176	0.017	280040	REC_END	n/a	n/a	n/a	n/a	4	-999	n/a	n/a	-999	2	[0, 0, 0]	n/a	0	1	0	n/a	n/a	0.0	0	0	0	PAL2	0	R1028M
480.193	0.25	280049	TEST_ORIENT	n/a	n/a	ROPE	SPRING	5	5	SPRING	ROPE	1	2	[0, 0, 0]	n/a	0	1	0	n/a	n/a	0.0	0	0	0	PAL2	0	R1028M
480.993	4.0	280449	TEST_PROBE	n/a	wordpools/wordpool_EN.txt	ROPE	SPRING	5	5	SPRING	ROPE	1	2	[0, 0, 0]	n/a	0	1	0	n/a	n/a	0.0	0	0	0	PAL2	0	R1028M
480.994	2.176	280449	REC_START	n/a	n/a	n/a	n/a	5	-999	n/a	ROPE	1	2	[0, 0, 0]	n/a	0	1	0	n/a	n/a	0.0	0	0	0	PAL2	0	R1028M
483.17	2.841	281537	REC_EVENT	2.176	n/a	ROPE	SPRING	5	5	SPRING	ROPE	1	2	[0, 0, 0]	n/a	0	1	0	n/a	n/a	0.0	0	0	0	PAL2	0	R1028M
486.011	0.017	282957	REC_END	n/a	n/a	n/a	n/a	5	-999	n/a	n/a	-999	2	[0, 0, 0]	n/a	0	1	0	n/a	n/a	0.0	0	0	0	PAL2	0	R1028M
486.028	0.25	282966	TEST_ORIENT	n/a	n/a	BOOK	POLE	2	6	BOOK	POLE	1	2	[0, 0, 0]	n/a	0	1	0	n/a	n/a	0.0	0	0	0	PAL2	0	R1028M
486.64	4.6	283272	STIM_ON	n/a	n/a	BOOK	POLE	2	6	BOOK	POLE	1	2	[0, 0, 0]	n/a	1	1	4600	RTG1	RTG10	1000.0	50	230	300	PAL2	0	R1028M
486.845	4.0	283374	TEST_PROBE	n/a	wordpools/wordpool_EN.txt	BOOK	POLE	2	6	BOOK	POLE	1	2	[0, 0, 0]	n/a	1	1	4600	RTG1	RTG10	1000.0	50	230	300	PAL2	0	R1028M
486.845	1.034	283374	REC_START	n/a	n/a	n/a	n/a	2	-999	n/a	POLE	1	2	[0, 0, 0]	n/a	1	1	4600	RTG1	RTG10	1000.0	50	230	300	PAL2	0	R1028M
487.879	3.983	283891	REC_EVENT	1.034	n/a	BOOK	POLE	2	6	BOOK	POLE	1	2	[0, 0, 0]	n/a	1	1	4600	RTG1	RTG10	1000.0	50	230	300	PAL2	0	R1028M
491.862	32.555	285882	REC_END	n/a	n/a	n/a	n/a	2	-999	n/a	n/a	-999	2	[0, 0, 0]	n/a	0	1	0	n/a	n/a	0.0	0	0	0	PAL2	0	R1028M
524.417	10.454	302158	ENCODING_START	n/a	n/a	n/a	n/a	0	-999	n/a	n/a	-999	3	[0, 0, 0]	n/a	0	0	0	n/a	n/a	0.0	0	0	0	PAL2	0	R1028M
534.871	0.25	307385	STUDY_ORIENT	n/a	n/a	ROAD	RICE	1	1	ROAD	RICE	1	3	[0, 0, 0]	n/a	0	0	0	n/a	n/a	0.0	0	0	0	PAL2	0	R1028M
535.838	4.0	307868	STUDY_PAIR	n/a	wordpools/wordpool_EN.txt	ROAD	RICE	1	1	ROAD	RICE	1	3	[0, 0, 0]	n/a	0	0	0	n/a	n/a	0.0	0	0	0	PAL2	0	R1028M
540.872	0.25	310385	STUDY_ORIENT	n/a	n/a	DUCK	ROOM	2	4	ROOM	DUCK	1	3	[0, 0, 0]	n/a	0	0	0	n/a	n/a	0.0	0	0	0	PAL2	0	R1028M
541.755	4.0	310826	STUDY_PAIR	n/a	wordpools/wordpool_EN.txt	DUCK	ROOM	2	4	ROOM	DUCK	1	3	[0, 0, 0]	n/a	0	0	0	n/a	n/a	0.0	0	0	0	PAL2	0	R1028M
546.773	0.25	313335	STUDY_ORIENT	n/a	n/a	SHEEP	TOOTH	3	3	TOOTH	SHEEP	1	3	[0, 0, 0]	n/a	0	0	0	n/a	n/a	0.0	0	0	0	PAL2	0	R1028M
547.757	4.0	313827	STUDY_PAIR	n/a	wordpools/wordpool_EN.txt	SHEEP	TOOTH	3	3	TOOTH	SHEEP	1	3	[0, 0, 0]	n/a	0	0	0	n/a	n/a	0.0	0	0	0	PAL2	0	R1028M
552.791	0.25	316344	STUDY_ORIENT	n/a	n/a	LAMP	CART	4	2	LAMP	CART	1	3	[0, 0, 0]	n/a	0	0	0	n/a	n/a	0.0	0	0	0	PAL2	0	R1028M
553.808	4.0	316852	STUDY_PAIR	n/a	wordpools/wordpool_EN.txt	LAMP	CART	4	2	LAMP	CART	1	3	[0, 0, 0]	n/a	0	0	0	n/a	n/a	0.0	0	0	0	PAL2	0	R1028M
558.842	0.25	319369	STUDY_ORIENT	n/a	n/a	PANTS	SHARK	5	5	SHARK	PANTS	1	3	[0, 0, 0]	n/a	0	0	0	n/a	n/a	0.0	0	0	0	PAL2	0	R1028M
559.676	4.0	319786	STUDY_PAIR	n/a	wordpools/wordpool_EN.txt	PANTS	SHARK	5	5	SHARK	PANTS	1	3	[0, 0, 0]	n/a	0	0	0	n/a	n/a	0.0	0	0	0	PAL2	0	R1028M
564.71	0.25	322303	STUDY_ORIENT	n/a	n/a	HOUSE	FLAG	6	6	HOUSE	FLAG	1	3	[0, 0, 0]	n/a	0	0	0	n/a	n/a	0.0	0	0	0	PAL2	0	R1028M
565.66	4.0	322778	STUDY_PAIR	n/a	wordpools/wordpool_EN.txt	HOUSE	FLAG	6	6	HOUSE	FLAG	1	3	[0, 0, 0]	n/a	0	0	0	n/a	n/a	0.0	0	0	0	PAL2	0	R1028M
569.661	1.0	324778	START	n/a	n/a	n/a	n/a	-999	-999	n/a	n/a	-999	3	[-999, -999, -999]	n/a	0	0	0	n/a	n/a	0.0	0	0	0	PAL2	0	R1028M
570.661	0.017	325278	MATH_START	n/a	n/a	n/a	n/a	-999	-999	n/a	n/a	-999	3	[0, 0, 0]	n/a	0	0	0	n/a	n/a	0.0	0	0	0	PAL2	0	R1028M
570.678	8.668	325286	PROB	8.644	n/a	n/a	n/a	-999	-999	n/a	n/a	-999	3	[6, 7, 5]	18	0	0	0	n/a	n/a	0.0	0	0	0	PAL2	0	R1028M
579.346	8.735	329620	PROB	8.712	n/a	n/a	n/a	-999	-999	n/a	n/a	-999	3	[7, 8, 7]	22	0	0	0	n/a	n/a	0.0	0	0	0	PAL2	0	R1028M
588.081	2.761	333987	PROB	2.761	n/a	n/a	n/a	-999	-999	n/a	n/a	-999	3	[4, 7, 3]	14	0	0	0	n/a	n/a	0.0	0	0	0	PAL2	0	R1028M
590.842	0.007	335367	STOP	n/a	n/a	n/a	n/a	-999	-999	n/a	n/a	-999	3	[-999, -999, -999]	n/a	0	0	0	n/a	n/a	0.0	0	0	0	PAL2	0	R1028M
590.849	0.0	335371	TEST_START	n/a	n/a	n/a	n/a	-999	-999	n/a	n/a	-999	3	[0, 0, 0]	n/a	0	0	0	n/a	n/a	0.0	0	0	0	PAL2	0	R1028M
590.849	0.016	335371	MATH_END	n/a	n/a	n/a	n/a	-999	-999	n/a	n/a	-999	3	[0, 0, 0]	n/a	0	0	0	n/a	n/a	0.0	0	0	0	PAL2	0	R1028M
590.865	0.25	335379	TEST_ORIENT	n/a	n/a	ROAD	RICE	1	1	ROAD	RICE	1	3	[0, 0, 0]	n/a	0	0	0	n/a	n/a	0.0	0	0	0	PAL2	0	R1028M
591.799	4.0	335846	TEST_PROBE	n/a	wordpools/wordpool_EN.txt	ROAD	RICE	1	1	ROAD	RICE	1	3	[0, 0, 0]	n/a	0	0	0	n/a	n/a	0.0	0	0	0	PAL2	0	R1028M
591.8	1.128	335846	REC_START	n/a	n/a	n/a	n/a	1	-999	n/a	RICE	1	3	[0, 0, 0]	n/a	0	0	0	n/a	n/a	0.0	0	0	0	PAL2	0	R1028M
592.928	3.898	336410	REC_EVENT	1.128	n/a	ROAD	RICE	1	1	ROAD	RICE	1	3	[0, 0, 0]	n/a	0	0	0	n/a	n/a	0.0	0	0	0	PAL2	0	R1028M
596.826	0.024	338359	REC_END	n/a	n/a	n/a	n/a	1	-999	n/a	n/a	-999	3	[0, 0, 0]	n/a	0	0	0	n/a	n/a	0.0	0	0	0	PAL2	0	R1028M
596.85	0.25	338371	TEST_ORIENT	n/a	n/a	LAMP	CART	4	2	LAMP	CART	1	3	[0, 0, 0]	n/a	0	0	0	n/a	n/a	0.0	0	0	0	PAL2	0	R1028M
597.783	4.0	338838	TEST_PROBE	n/a	wordpools/wordpool_EN.txt	LAMP	CART	4	2	LAMP	CART	1	3	[0, 0, 0]	n/a	0	0	0	n/a	n/a	0.0	0	0	0	PAL2	0	R1028M
597.786	1.697	338839	REC_START	n/a	n/a	n/a	n/a	4	-999	n/a	CART	1	3	[0, 0, 0]	n/a	0	0	0	n/a	n/a	0.0	0	0	0	PAL2	0	R1028M
599.483	3.301	339687	REC_EVENT	1.697	n/a	LAMP	CART	4	2	LAMP	CART	1	3	[0, 0, 0]	n/a	0	0	0	n/a	n/a	0.0	0	0	0	PAL2	0	R1028M
602.784	0.017	341338	REC_END	n/a	n/a	n/a	n/a	4	-999	n/a	n/a	-999	3	[0, 0, 0]	n/a	0	0	0	n/a	n/a	0.0	0	0	0	PAL2	0	R1028M
602.801	0.25	341346	TEST_ORIENT	n/a	n/a	SHEEP	TOOTH	3	3	TOOTH	SHEEP	1	3	[0, 0, 0]	n/a	0	0	0	n/a	n/a	0.0	0	0	0	PAL2	0	R1028M
603.801	4.0	341846	TEST_PROBE	n/a	wordpools/wordpool_EN.txt	SHEEP	TOOTH	3	3	TOOTH	SHEEP	1	3	[0, 0, 0]	n/a	0	0	0	n/a	n/a	0.0	0	0	0	PAL2	0	R1028M
603.802	1.351	341847	REC_START	n/a	n/a	n/a	n/a	3	-999	n/a	SHEEP	1	3	[0, 0, 0]	n/a	0	0	0	n/a	n/a	0.0	0	0	0	PAL2	0	R1028M
605.153	3.659	342522	REC_EVENT	1.351	n/a	SHEEP	TOOTH	3	3	TOOTH	SHEEP	1	3	[0, 0, 0]	n/a	0	0	0	n/a	n/a	0.0	0	0	0	PAL2	0	R1028M
608.812	0.024	344352	REC_END	n/a	n/a	n/a	n/a	3	-999	n/a	n/a	-999	3	[0, 0, 0]	n/a	0	0	0	n/a	n/a	0.0	0	0	0	PAL2	0	R1028M
608.836	0.25	344364	TEST_ORIENT	n/a	n/a	DUCK	ROOM	2	4	ROOM	DUCK	1	3	[0, 0, 0]	n/a	0	0	0	n/a	n/a	0.0	0	0	0	PAL2	0	R1028M
609.769	0.0	344830	REC_START	n/a	n/a	n/a	n/a	2	-999	n/a	DUCK	1	3	[0, 0, 0]	n/a	0	0	0	n/a	n/a	0.0	0	0	0	PAL2	0	R1028M
609.769	4.0	344830	TEST_PROBE	n/a	wordpools/wordpool_EN.txt	DUCK	ROOM	2	4	ROOM	DUCK	1	3	[0, 0, 0]	n/a	0	0	0	n/a	n/a	0.0	0	0	0	PAL2	0	R1028M
614.331	0.456	347111	REC_EVENT	4.562	n/a	DUCK	ROOM	2	4	ROOM	DUCK	1	3	[0, 0, 0]	n/a	0	0	0	n/a	n/a	0.0	0	0	0	PAL2	0	R1028M
614.787	0.016	347339	REC_END	n/a	n/a	n/a	n/a	2	-999	n/a	n/a	-999	3	[0, 0, 0]	n/a	0	0	0	n/a	n/a	0.0	0	0	0	PAL2	0	R1028M
614.803	0.25	347347	TEST_ORIENT	n/a	n/a	PANTS	SHARK	5	5	SHARK	PANTS	1	3	[0, 0, 0]	n/a	0	0	0	n/a	n/a	0.0	0	0	0	PAL2	0	R1028M
615.637	4.0	347764	TEST_PROBE	n/a	wordpools/wordpool_EN.txt	PANTS	SHARK	5	5	SHARK	PANTS	1	3	[0, 0, 0]	n/a	0	0	0	n/a	n/a	0.0	0	0	0	PAL2	0	R1028M
615.637	0.967	347764	REC_START	n/a	n/a	n/a	n/a	5	-999	n/a	PANTS	1	3	[0, 0, 0]	n/a	0	0	0	n/a	n/a	0.0	0	0	0	PAL2	0	R1028M
616.604	4.05	348247	REC_EVENT	0.967	n/a	PANTS	SHARK	5	5	SHARK	PANTS	1	3	[0, 0, 0]	n/a	0	0	0	n/a	n/a	0.0	0	0	0	PAL2	0	R1028M
620.654	0.017	350272	REC_END	n/a	n/a	n/a	n/a	5	-999	n/a	n/a	-999	3	[0, 0, 0]	n/a	0	0	0	n/a	n/a	0.0	0	0	0	PAL2	0	R1028M
620.671	0.25	350280	TEST_ORIENT	n/a	n/a	HOUSE	FLAG	6	6	HOUSE	FLAG	1	3	[0, 0, 0]	n/a	0	0	0	n/a	n/a	0.0	0	0	0	PAL2	0	R1028M
621.555	0.0	350722	REC_START	n/a	n/a	n/a	n/a	6	-999	n/a	FLAG	1	3	[0, 0, 0]	n/a	0	0	0	n/a	n/a	0.0	0	0	0	PAL2	0	R1028M
621.555	4.0	350722	TEST_PROBE	n/a	wordpools/wordpool_EN.txt	HOUSE	FLAG	6	6	HOUSE	FLAG	1	3	[0, 0, 0]	n/a	0	0	0	n/a	n/a	0.0	0	0	0	PAL2	0	R1028M
622.98	3.592	351435	REC_EVENT	1.425	n/a	HOUSE	FLAG	6	6	HOUSE	FLAG	1	3	[0, 0, 0]	n/a	0	0	0	n/a	n/a	0.0	0	0	0	PAL2	0	R1028M
626.572	33.718	353231	REC_END	n/a	n/a	n/a	n/a	6	-999	n/a	n/a	-999	3	[0, 0, 0]	n/a	0	0	0	n/a	n/a	0.0	0	0	0	PAL2	0	R1028M
660.29	10.441	370088	ENCODING_START	n/a	n/a	n/a	n/a	0	-999	n/a	n/a	-999	4	[0, 0, 0]	n/a	0	1	0	n/a	n/a	0.0	0	0	0	PAL2	0	R1028M
670.731	0.25	375308	STUDY_ORIENT	n/a	n/a	SHRIMP	BENCH	1	1	BENCH	SHRIMP	1	4	[0, 0, 0]	n/a	0	1	0	n/a	n/a	0.0	0	0	0	PAL2	0	R1028M
671.581	4.0	375733	STUDY_PAIR	n/a	wordpools/wordpool_EN.txt	SHRIMP	BENCH	1	1	BENCH	SHRIMP	1	4	[0, 0, 0]	n/a	0	1	0	n/a	n/a	0.0	0	0	0	PAL2	0	R1028M
676.599	0.25	378242	STUDY_ORIENT	n/a	n/a	SPARK	TRASH	2	4	SPARK	TRASH	1	4	[0, 0, 0]	n/a	0	1	0	n/a	n/a	0.0	0	0	0	PAL2	0	R1028M
677.599	4.0	378742	STUDY_PAIR	n/a	wordpools/wordpool_EN.txt	SPARK	TRASH	2	4	SPARK	TRASH	1	4	[0, 0, 0]	n/a	0	1	0	n/a	n/a	0.0	0	0	0	PAL2	0	R1028M
682.617	0.25	381250	STUDY_ORIENT	n/a	n/a	DOG	CLOCK	3	5	DOG	CLOCK	1	4	[0, 0, 0]	n/a	0	1	0	n/a	n/a	0.0	0	0	0	PAL2	0	R1028M
683.634	4.0	381759	STUDY_PAIR	n/a	wordpools/wordpool_EN.txt	DOG	CLOCK	3	5	DOG	CLOCK	1	4	[0, 0, 0]	n/a	0	1	0	n/a	n/a	0.0	0	0	0	PAL2	0	R1028M
688.668	0.25	384275	STUDY_ORIENT	n/a	n/a	CHEEK	SEAT	4	6	SEAT	CHEEK	1	4	[0, 0, 0]	n/a	0	1	0	n/a	n/a	0.0	0	0	0	PAL2	0	R1028M
689.552	4.0	384717	STUDY_PAIR	n/a	wordpools/wordpool_EN.txt	CHEEK	SEAT	4	6	SEAT	CHEEK	1	4	[0, 0, 0]	n/a	0	1	0	n/a	n/a	0.0	0	0	0	PAL2	0	R1028M
694.586	0.25	387234	STUDY_ORIENT	n/a	n/a	TOAST	LOCK	5	3	LOCK	TOAST	1	4	[0, 0, 0]	n/a	0	1	0	n/a	n/a	0.0	0	0	0	PAL2	0	R1028M
695.603	4.0	387743	STUDY_PAIR	n/a	wordpools/wordpool_EN.txt	TOAST	LOCK	5	3	LOCK	TOAST	1	4	[0, 0, 0]	n/a	0	1	0	n/a	n/a	0.0	0	0	0	PAL2	0	R1028M
700.637	0.25	390259	STUDY_ORIENT	n/a	n/a	PLANT	RUG	6	2	RUG	PLANT	1	4	[0, 0, 0]	n/a	0	1	0	n/a	n/a	0.0	0	0	0	PAL2	0	R1028M
701.437	4.0	390659	STUDY_PAIR	n/a	wordpools/wordpool_EN.txt	PLANT	RUG	6	2	RUG	PLANT	1	4	[0, 0, 0]	n/a	0	1	0	n/a	n/a	0.0	0	0	0	PAL2	0	R1028M
705.438	1.0	392660	START	n/a	n/a	n/a	n/a	-999	-999	n/a	n/a	-999	4	[-999, -999, -999]	n/a	0	1	0	n/a	n/a	0.0	0	0	0	PAL2	0	R1028M
706.438	0.017	393160	MATH_START	n/a	n/a	n/a	n/a	-999	-999	n/a	n/a	-999	4	[0, 0, 0]	n/a	0	1	0	n/a	n/a	0.0	0	0	0	PAL2	0	R1028M
706.455	3.251	393168	PROB	3.219	n/a	n/a	n/a	-999	-999	n/a	n/a	-999	4	[5, 8, 2]	15	0	1	0	n/a	n/a	0.0	0	0	0	PAL2	0	R1028M
709.706	3.699	394793	PROB	3.672	n/a	n/a	n/a	-999	-999	n/a	n/a	-999	4	[4, 5, 6]	15	0	1	0	n/a	n/a	0.0	0	0	0	PAL2	0	R1028M
713.405	2.952	396643	PROB	2.917	n/a	n/a	n/a	-999	-999	n/a	n/a	-999	4	[1, 7, 7]	15	0	1	0	n/a	n/a	0.0	0	0	0	PAL2	0	R1028M
716.357	2.534	398119	PROB	2.509	n/a	n/a	n/a	-999	-999	n/a	n/a	-999	4	[1, 3, 7]	11	0	1	0	n/a	n/a	0.0	0	0	0	PAL2	0	R1028M
718.891	2.617	399385	PROB	2.591	n/a	n/a	n/a	-999	-999	n/a	n/a	-999	4	[4, 4, 1]	9	0	1	0	n/a	n/a	0.0	0	0	0	PAL2	0	R1028M
721.508	2.6	400694	PROB	2.574	n/a	n/a	n/a	-999	-999	n/a	n/a	-999	4	[6, 5, 5]	16	0	1	0	n/a	n/a	0.0	0	0	0	PAL2	0	R1028M
724.108	2.798	401994	PROB	2.798	n/a	n/a	n/a	-999	-999	n/a	n/a	-999	4	[2, 3, 6]	11	0	1	0	n/a	n/a	0.0	0	0	0	PAL2	0	R1028M
726.906	0.003	403392	STOP	n/a	n/a	n/a	n/a	-999	-999	n/a	n/a	-999	4	[-999, -999, -999]	n/a	0	1	0	n/a	n/a	0.0	0	0	0	PAL2	0	R1028M
726.909	0.0	403394	TEST_START	n/a	n/a	n/a	n/a	-999	-999	n/a	n/a	-999	4	[0, 0, 0]	n/a	0	1	0	n/a	n/a	0.0	0	0	0	PAL2	0	R1028M
726.909	0.017	403394	MATH_END	n/a	n/a	n/a	n/a	-999	-999	n/a	n/a	-999	4	[0, 0, 0]	n/a	0	1	0	n/a	n/a	0.0	0	0	0	PAL2	0	R1028M
726.926	0.25	403402	TEST_ORIENT	n/a	n/a	SHRIMP	BENCH	1	1	BENCH	SHRIMP	1	4	[0, 0, 0]	n/a	0	1	0	n/a	n/a	0.0	0	0	0	PAL2	0	R1028M
727.644	4.6	403761	STIM_ON	n/a	n/a	SHRIMP	BENCH	1	1	BENCH	SHRIMP	1	4	[0, 0, 0]	n/a	1	1	4600	RTG1	RTG10	1000.0	50	230	300	PAL2	0	R1028M
727.859	4.0	403869	TEST_PROBE	n/a	wordpools/wordpool_EN.txt	SHRIMP	BENCH	1	1	BENCH	SHRIMP	1	4	[0, 0, 0]	n/a	1	1	4600	RTG1	RTG10	1000.0	50	230	300	PAL2	0	R1028M
727.86	1.221	403869	REC_START	n/a	n/a	n/a	n/a	1	-999	n/a	SHRIMP	1	4	[0, 0, 0]	n/a	1	1	4600	RTG1	RTG10	1000.0	50	230	300	PAL2	0	R1028M
729.081	3.789	404480	REC_EVENT	1.221	n/a	SHRIMP	BENCH	1	1	BENCH	SHRIMP	1	4	[0, 0, 0]	n/a	1	1	4600	RTG1	RTG10	1000.0	50	230	300	PAL2	0	R1028M
732.87	0.024	406374	REC_END	n/a	n/a	n/a	n/a	1	-999	n/a	n/a	-999	4	[0, 0, 0]	n/a	0	1	0	n/a	n/a	0.0	0	0	0	PAL2	0	R1028M
732.894	0.25	406386	TEST_ORIENT	n/a	n/a	PLANT	RUG	6	2	RUG	PLANT	1	4	[0, 0, 0]	n/a	0	1	0	n/a	n/a	0.0	0	0	0	PAL2	0	R1028M
733.894	4.0	406886	TEST_PROBE	n/a	wordpools/wordpool_EN.txt	PLANT	RUG	6	2	RUG	PLANT	1	4	[0, 0, 0]	n/a	0	1	0	n/a	n/a	0.0	0	0	0	PAL2	0	R1028M
733.894	1.025	406886	REC_START	n/a	n/a	n/a	n/a	6	-999	n/a	PLANT	1	4	[0, 0, 0]	n/a	0	1	0	n/a	n/a	0.0	0	0	0	PAL2	0	R1028M
734.919	3.992	407399	REC_EVENT	1.025	n/a	PLANT	RUG	6	2	RUG	PLANT	1	4	[0, 0, 0]	n/a	0	1	0	n/a	n/a	0.0	0	0	0	PAL2	0	R1028M
738.911	0.017	409394	REC_END	n/a	n/a	n/a	n/a	6	-999	n/a	n/a	-999	4	[0, 0, 0]	n/a	0	1	0	n/a	n/a	0.0	0	0	0	PAL2	0	R1028M
738.928	0.25	409403	TEST_ORIENT	n/a	n/a	TOAST	LOCK	5	3	LOCK	TOAST	1	4	[0, 0, 0]	n/a	0	1	0	n/a	n/a	0.0	0	0	0	PAL2	0	R1028M
739.563	4.6	409720	STIM_ON	n/a	n/a	TOAST	LOCK	5	3	LOCK	TOAST	1	4	[0, 0, 0]	n/a	1	1	4600	RTG1	RTG10	1000.0	50	230	300	PAL2	0	R1028M
739.778	4.0	409828	TEST_PROBE	n/a	wordpools/wordpool_EN.txt	TOAST	LOCK	5	3	LOCK	TOAST	1	4	[0, 0, 0]	n/a	1	1	4600	RTG1	RTG10	1000.0	50	230	300	PAL2	0	R1028M
739.779	2.362	409828	REC_START	n/a	n/a	n/a	n/a	5	-999	n/a	TOAST	1	4	[0, 0, 0]	n/a	1	1	4600	RTG1	RTG10	1000.0	50	230	300	PAL2	0	R1028M
742.141	1.31	411009	REC_EVENT	2.362	n/a	TOAST	LOCK	5	3	LOCK	BLOOM	0	4	[0, 0, 0]	n/a	1	1	4600	RTG1	RTG10	1000.0	50	230	300	PAL2	0	R1028M
743.451	1.338	411664	REC_EVENT	3.672	n/a	TOAST	LOCK	5	3	LOCK	TOAST	1	4	[0, 0, 0]	n/a	1	1	4600	RTG1	RTG10	1000.0	50	230	300	PAL2	0	R1028M
744.789	0.024	412333	REC_END	n/a	n/a	n/a	n/a	5	-999	n/a	n/a	-999	4	[0, 0, 0]	n/a	0	1	0	n/a	n/a	0.0	0	0	0	PAL2	0	R1028M
744.813	0.25	412345	TEST_ORIENT	n/a	n/a	SPARK	TRASH	2	4	SPARK	TRASH	1	4	[0, 0, 0]	n/a	0	1	0	n/a	n/a	0.0	0	0	0	PAL2	0	R1028M
745.763	4.0	412820	TEST_PROBE	n/a	wordpools/wordpool_EN.txt	SPARK	TRASH	2	4	SPARK	TRASH	1	4	[0, 0, 0]	n/a	0	1	0	n/a	n/a	0.0	0	0	0	PAL2	0	R1028M
745.764	1.179	412821	REC_START	n/a	n/a	n/a	n/a	2	-999	n/a	TRASH	1	4	[0, 0, 0]	n/a	0	1	0	n/a	n/a	0.0	0	0	0	PAL2	0	R1028M
746.943	3.847	413410	REC_EVENT	1.179	n/a	SPARK	TRASH	2	4	SPARK	TRASH	1	4	[0, 0, 0]	n/a	0	1	0	n/a	n/a	0.0	0	0	0	PAL2	0	R1028M
750.79	0.007	415333	REC_END	n/a	n/a	n/a	n/a	2	-999	n/a	n/a	-999	4	[0, 0, 0]	n/a	0	1	0	n/a	n/a	0.0	0	0	0	PAL2	0	R1028M
750.797	0.25	415337	TEST_ORIENT	n/a	n/a	DOG	CLOCK	3	5	DOG	CLOCK	1	4	[0, 0, 0]	n/a	0	1	0	n/a	n/a	0.0	0	0	0	PAL2	0	R1028M
751.554	4.6	415715	STIM_ON	n/a	n/a	DOG	CLOCK	3	5	DOG	CLOCK	1	4	[0, 0, 0]	n/a	1	1	4600	RTG1	RTG10	1000.0	50	230	300	PAL2	0	R1028M
751.764	4.0	415820	TEST_PROBE	n/a	wordpools/wordpool_EN.txt	DOG	CLOCK	3	5	DOG	CLOCK	1	4	[0, 0, 0]	n/a	1	1	4600	RTG1	RTG10	1000.0	50	230	300	PAL2	0	R1028M
751.764	0.99	415820	REC_START	n/a	n/a	n/a	n/a	3	-999	n/a	CLOCK	1	4	[0, 0, 0]	n/a	1	1	4600	RTG1	RTG10	1000.0	50	230	300	PAL2	0	R1028M
752.754	4.028	416315	REC_EVENT	0.99	n/a	DOG	CLOCK	3	5	DOG	CLOCK	1	4	[0, 0, 0]	n/a	1	1	4600	RTG1	RTG10	1000.0	50	230	300	PAL2	0	R1028M
756.782	0.016	418329	REC_END	n/a	n/a	n/a	n/a	3	-999	n/a	n/a	-999	4	[0, 0, 0]	n/a	0	1	0	n/a	n/a	0.0	0	0	0	PAL2	0	R1028M
756.798	0.25	418337	TEST_ORIENT	n/a	n/a	CHEEK	SEAT	4	6	SEAT	CHEEK	1	4	[0, 0, 0]	n/a	0	1	0	n/a	n/a	0.0	0	0	0	PAL2	0	R1028M
757.632	4.0	418754	TEST_PROBE	n/a	wordpools/wordpool_EN.txt	CHEEK	SEAT	4	6	SEAT	CHEEK	1	4	[0, 0, 0]	n/a	0	1	0	n/a	n/a	0.0	0	0	0	PAL2	0	R1028M
757.632	2.47	418754	REC_START	n/a	n/a	n/a	n/a	4	-999	n/a	CHEEK	1	4	[0, 0, 0]	n/a	0	1	0	n/a	n/a	0.0	0	0	0	PAL2	0	R1028M
760.102	2.547	419989	REC_EVENT	2.47	n/a	CHEEK	SEAT	4	6	SEAT	CHEEK	1	4	[0, 0, 0]	n/a	0	1	0	n/a	n/a	0.0	0	0	0	PAL2	0	R1028M
762.649	15.905	421262	REC_END	n/a	n/a	n/a	n/a	4	-999	n/a	n/a	-999	4	[0, 0, 0]	n/a	0	1	0	n/a	n/a	0.0	0	0	0	PAL2	0	R1028M
778.554	10.451	429214	ENCODING_START	n/a	n/a	n/a	n/a	0	-999	n/a	n/a	-999	5	[0, 0, 0]	n/a	0	1	0	n/a	n/a	0.0	0	0	0	PAL2	0	R1028M
789.005	0.25	434439	STUDY_ORIENT	n/a	n/a	CHIN	LIP	1	3	LIP	CHIN	1	5	[0, 0, 0]	n/a	0	1	0	n/a	n/a	0.0	0	0	0	PAL2	0	R1028M
789.988	4.0	434930	STUDY_PAIR	n/a	wordpools/wordpool_EN.txt	CHIN	LIP	1	3	LIP	CHIN	1	5	[0, 0, 0]	n/a	0	1	0	n/a	n/a	0.0	0	0	0	PAL2	0	R1028M
795.006	0.25	437439	STUDY_ORIENT	n/a	n/a	ANT	WOOD	2	4	WOOD	ANT	1	5	[0, 0, 0]	n/a	0	1	0	n/a	n/a	0.0	0	0	0	PAL2	0	R1028M
795.89	4.0	437881	STUDY_PAIR	n/a	wordpools/wordpool_EN.txt	ANT	WOOD	2	4	WOOD	ANT	1	5	[0, 0, 0]	n/a	0	1	0	n/a	n/a	0.0	0	0	0	PAL2	0	R1028M
800.924	0.25	440398	STUDY_ORIENT	n/a	n/a	HOSE	STRAW	3	1	HOSE	STRAW	1	5	[0, 0, 0]	n/a	0	1	0	n/a	n/a	0.0	0	0	0	PAL2	0	R1028M
801.824	4.0	440848	STUDY_PAIR	n/a	wordpools/wordpool_EN.txt	HOSE	STRAW	3	1	HOSE	STRAW	1	5	[0, 0, 0]	n/a	0	1	0	n/a	n/a	0.0	0	0	0	PAL2	0	R1028M
806.858	0.25	443364	STUDY_ORIENT	n/a	n/a	ROSE	BEAR	4	6	BEAR	ROSE	1	5	[0, 0, 0]	n/a	0	1	0	n/a	n/a	0.0	0	0	0	PAL2	0	R1028M
807.808	4.0	443839	STUDY_PAIR	n/a	wordpools/wordpool_EN.txt	ROSE	BEAR	4	6	BEAR	ROSE	1	5	[0, 0, 0]	n/a	0	1	0	n/a	n/a	0.0	0	0	0	PAL2	0	R1028M
812.826	0.25	446348	STUDY_ORIENT	n/a	n/a	BEAN	BANK	5	5	BANK	BEAN	1	5	[0, 0, 0]	n/a	0	1	0	n/a	n/a	0.0	0	0	0	PAL2	0	R1028M
813.843	4.0	446857	STUDY_PAIR	n/a	wordpools/wordpool_EN.txt	BEAN	BANK	5	5	BANK	BEAN	1	5	[0, 0, 0]	n/a	0	1	0	n/a	n/a	0.0	0	0	0	PAL2	0	R1028M
818.861	0.25	449365	STUDY_ORIENT	n/a	n/a	CLIFF	FLOOR	6	2	FLOOR	CLIFF	1	5	[0, 0, 0]	n/a	0	1	0	n/a	n/a	0.0	0	0	0	PAL2	0	R1028M
819.811	4.0	449840	STUDY_PAIR	n/a	wordpools/wordpool_EN.txt	CLIFF	FLOOR	6	2	FLOOR	CLIFF	1	5	[0, 0, 0]	n/a	0	1	0	n/a	n/a	0.0	0	0	0	PAL2	0	R1028M
823.829	0.999	451849	START	n/a	n/a	n/a	n/a	-999	-999	n/a	n/a	-999	5	[-999, -999, -999]	n/a	0	1	0	n/a	n/a	0.0	0	0	0	PAL2	0	R1028M
824.828	0.017	452348	MATH_START	n/a	n/a	n/a	n/a	-999	-999	n/a	n/a	-999	5	[0, 0, 0]	n/a	0	1	0	n/a	n/a	0.0	0	0	0	PAL2	0	R1028M
824.845	4.351	452357	PROB	4.325	n/a	n/a	n/a	-999	-999	n/a	n/a	-999	5	[1, 6, 6]	13	0	1	0	n/a	n/a	0.0	0	0	0	PAL2	0	R1028M
829.196	4.001	454532	PROB	3.966	n/a	n/a	n/a	-999	-999	n/a	n/a	-999	5	[4, 9, 8]	21	0	1	0	n/a	n/a	0.0	0	0	0	PAL2	0	R1028M
833.197	2.634	456533	PROB	2.613	n/a	n/a	n/a	-999	-999	n/a	n/a	-999	5	[2, 3, 5]	7	0	1	0	n/a	n/a	0.0	0	0	0	PAL2	0	R1028M
835.831	5.984	457849	PROB	5.963	n/a	n/a	n/a	-999	-999	n/a	n/a	-999	5	[4, 7, 9]	20	0	1	0	n/a	n/a	0.0	0	0	0	PAL2	0	R1028M
841.815	7.578	460841	PROB	7.578	n/a	n/a	n/a	-999	-999	n/a	n/a	-999	5	[9, 8, 5]	22	0	1	0	n/a	n/a	0.0	0	0	0	PAL2	0	R1028M
849.393	0.006	464630	STOP	n/a	n/a	n/a	n/a	-999	-999	n/a	n/a	-999	5	[-999, -999, -999]	n/a	0	1	0	n/a	n/a	0.0	0	0	0	PAL2	0	R1028M
849.399	0.0	464633	MATH_END	n/a	n/a	n/a	n/a	-999	-999	n/a	n/a	-999	5	[0, 0, 0]	n/a	0	1	0	n/a	n/a	0.0	0	0	0	PAL2	0	R1028M
849.399	0.017	464633	TEST_START	n/a	n/a	n/a	n/a	-999	-999	n/a	n/a	-999	5	[0, 0, 0]	n/a	0	1	0	n/a	n/a	0.0	0	0	0	PAL2	0	R1028M
849.416	0.25	464641	TEST_ORIENT	n/a	n/a	HOSE	STRAW	3	1	HOSE	STRAW	1	5	[0, 0, 0]	n/a	0	1	0	n/a	n/a	0.0	0	0	0	PAL2	0	R1028M
850.284	4.0	465075	TEST_PROBE	n/a	wordpools/wordpool_EN.txt	HOSE	STRAW	3	1	HOSE	STRAW	1	5	[0, 0, 0]	n/a	0	1	0	n/a	n/a	0.0	0	0	0	PAL2	0	R1028M
850.284	1.225	465075	REC_START	n/a	n/a	n/a	n/a	3	-999	n/a	STRAW	1	5	[0, 0, 0]	n/a	0	1	0	n/a	n/a	0.0	0	0	0	PAL2	0	R1028M
851.509	3.792	465688	REC_EVENT	1.225	n/a	HOSE	STRAW	3	1	HOSE	STRAW	1	5	[0, 0, 0]	n/a	0	1	0	n/a	n/a	0.0	0	0	0	PAL2	0	R1028M
855.301	0.017	467583	REC_END	n/a	n/a	n/a	n/a	3	-999	n/a	n/a	-999	5	[0, 0, 0]	n/a	0	1	0	n/a	n/a	0.0	0	0	0	PAL2	0	R1028M
855.318	0.25	467592	TEST_ORIENT	n/a	n/a	CLIFF	FLOOR	6	2	FLOOR	CLIFF	1	5	[0, 0, 0]	n/a	0	1	0	n/a	n/a	0.0	0	0	0	PAL2	0	R1028M
856.028	4.6	467947	STIM_ON	n/a	n/a	CLIFF	FLOOR	6	2	FLOOR	CLIFF	1	5	[0, 0, 0]	n/a	1	1	4600	RTG1	RTG10	1000.0	50	230	300	PAL2	0	R1028M
856.235	4.0	468050	TEST_PROBE	n/a	wordpools/wordpool_EN.txt	CLIFF	FLOOR	6	2	FLOOR	CLIFF	1	5	[0, 0, 0]	n/a	1	1	4600	RTG1	RTG10	1000.0	50	230	300	PAL2	0	R1028M
856.235	1.148	468050	REC_START	n/a	n/a	n/a	n/a	6	-999	n/a	CLIFF	1	5	[0, 0, 0]	n/a	1	1	4600	RTG1	RTG10	1000.0	50	230	300	PAL2	0	R1028M
857.383	3.869	468624	REC_EVENT	1.148	n/a	CLIFF	FLOOR	6	2	FLOOR	CLIFF	1	5	[0, 0, 0]	n/a	1	1	4600	RTG1	RTG10	1000.0	50	230	300	PAL2	0	R1028M
861.252	0.017	470559	REC_END	n/a	n/a	n/a	n/a	6	-999	n/a	n/a	-999	5	[0, 0, 0]	n/a	0	1	0	n/a	n/a	0.0	0	0	0	PAL2	0	R1028M
861.269	0.25	470567	TEST_ORIENT	n/a	n/a	CHIN	LIP	1	3	LIP	CHIN	1	5	[0, 0, 0]	n/a	0	1	0	n/a	n/a	0.0	0	0	0	PAL2	0	R1028M
862.236	4.0	471051	TEST_PROBE	n/a	wordpools/wordpool_EN.txt	CHIN	LIP	1	3	LIP	CHIN	1	5	[0, 0, 0]	n/a	0	1	0	n/a	n/a	0.0	0	0	0	PAL2	0	R1028M
862.236	0.867	471051	REC_START	n/a	n/a	n/a	n/a	1	-999	n/a	CHIN	1	5	[0, 0, 0]	n/a	0	1	0	n/a	n/a	0.0	0	0	0	PAL2	0	R1028M
863.103	4.151	471484	REC_EVENT	0.867	n/a	CHIN	LIP	1	3	LIP	CHIN	1	5	[0, 0, 0]	n/a	0	1	0	n/a	n/a	0.0	0	0	0	PAL2	0	R1028M
867.254	0.016	473559	REC_END	n/a	n/a	n/a	n/a	1	-999	n/a	n/a	-999	5	[0, 0, 0]	n/a	0	1	0	n/a	n/a	0.0	0	0	0	PAL2	0	R1028M
867.27	0.25	473567	TEST_ORIENT	n/a	n/a	ANT	WOOD	2	4	WOOD	ANT	1	5	[0, 0, 0]	n/a	0	1	0	n/a	n/a	0.0	0	0	0	PAL2	0	R1028M
867.9	4.6	473882	STIM_ON	n/a	n/a	ANT	WOOD	2	4	WOOD	ANT	1	5	[0, 0, 0]	n/a	1	1	4600	RTG1	RTG10	1000.0	50	230	300	PAL2	0	R1028M
868.104	4.0	473984	TEST_PROBE	n/a	wordpools/wordpool_EN.txt	ANT	WOOD	2	4	WOOD	ANT	1	5	[0, 0, 0]	n/a	1	1	4600	RTG1	RTG10	1000.0	50	230	300	PAL2	0	R1028M
868.104	0.947	473984	REC_START	n/a	n/a	n/a	n/a	2	-999	n/a	ANT	1	5	[0, 0, 0]	n/a	1	1	4600	RTG1	RTG10	1000.0	50	230	300	PAL2	0	R1028M
869.051	4.07	474458	REC_EVENT	0.947	n/a	ANT	WOOD	2	4	WOOD	ANT	1	5	[0, 0, 0]	n/a	1	1	4600	RTG1	RTG10	1000.0	50	230	300	PAL2	0	R1028M
873.121	0.017	476493	REC_END	n/a	n/a	n/a	n/a	2	-999	n/a	n/a	-999	5	[0, 0, 0]	n/a	0	1	0	n/a	n/a	0.0	0	0	0	PAL2	0	R1028M
873.138	0.25	476501	TEST_ORIENT	n/a	n/a	BEAN	BANK	5	5	BANK	BEAN	1	5	[0, 0, 0]	n/a	0	1	0	n/a	n/a	0.0	0	0	0	PAL2	0	R1028M
874.105	4.0	476984	TEST_PROBE	n/a	wordpools/wordpool_EN.txt	BEAN	BANK	5	5	BANK	BEAN	1	5	[0, 0, 0]	n/a	0	1	0	n/a	n/a	0.0	0	0	0	PAL2	0	R1028M
874.105	1.019	476984	REC_START	n/a	n/a	n/a	n/a	5	-999	n/a	BEAN	1	5	[0, 0, 0]	n/a	0	1	0	n/a	n/a	0.0	0	0	0	PAL2	0	R1028M
875.124	3.999	477494	REC_EVENT	1.019	n/a	BEAN	BANK	5	5	BANK	BEAN	1	5	[0, 0, 0]	n/a	0	1	0	n/a	n/a	0.0	0	0	0	PAL2	0	R1028M
879.123	0.016	479493	REC_END	n/a	n/a	n/a	n/a	5	-999	n/a	n/a	-999	5	[0, 0, 0]	n/a	0	1	0	n/a	n/a	0.0	0	0	0	PAL2	0	R1028M
879.139	0.25	479501	TEST_ORIENT	n/a	n/a	ROSE	BEAR	4	6	BEAR	ROSE	1	5	[0, 0, 0]	n/a	0	1	0	n/a	n/a	0.0	0	0	0	PAL2	0	R1028M
879.814	4.6	479839	STIM_ON	n/a	n/a	ROSE	BEAR	4	6	BEAR	ROSE	1	5	[0, 0, 0]	n/a	1	1	4600	RTG1	RTG10	1000.0	50	230	300	PAL2	0	R1028M
880.023	4.0	479943	TEST_PROBE	n/a	wordpools/wordpool_EN.txt	ROSE	BEAR	4	6	BEAR	ROSE	1	5	[0, 0, 0]	n/a	1	1	4600	RTG1	RTG10	1000.0	50	230	300	PAL2	0	R1028M
880.024	1.288	479944	REC_START	n/a	n/a	n/a	n/a	4	-999	n/a	ROSE	1	5	[0, 0, 0]	n/a	1	1	4600	RTG1	RTG10	1000.0	50	230	300	PAL2	0	R1028M
881.312	3.728	480588	REC_EVENT	1.288	n/a	ROSE	BEAR	4	6	BEAR	ROSE	1	5	[0, 0, 0]	n/a	1	1	4600	RTG1	RTG10	1000.0	50	230	300	PAL2	0	R1028M
885.04	2.122	482451	REC_END	n/a	n/a	n/a	n/a	4	-999	n/a	n/a	-999	5	[0, 0, 0]	n/a	0	1	0	n/a	n/a	0.0	0	0	0	PAL2	0	R1028M
887.162	10.448	483512	ENCODING_START	n/a	n/a	n/a	n/a	0	-999	n/a	n/a	-999	6	[0, 0, 0]	n/a	0	1	0	n/a	n/a	0.0	0	0	0	PAL2	0	R1028M
897.61	0.25	488736	STUDY_ORIENT	n/a	n/a	CUBE	NOSE	1	3	NOSE	n/a	0	6	[0, 0, 0]	n/a	0	1	0	n/a	n/a	0.0	0	0	0	PAL2	0	R1028M
898.477	4.0	489169	STUDY_PAIR	n/a	wordpools/wordpool_EN.txt	CUBE	NOSE	1	3	NOSE	n/a	0	6	[0, 0, 0]	n/a	0	1	0	n/a	n/a	0.0	0	0	0	PAL2	0	R1028M
903.511	0.25	491686	STUDY_ORIENT	n/a	n/a	TOOL	WOLF	2	4	WOLF	TOOL	1	6	[0, 0, 0]	n/a	0	1	0	n/a	n/a	0.0	0	0	0	PAL2	0	R1028M
904.494	4.0	492177	STUDY_PAIR	n/a	wordpools/wordpool_EN.txt	TOOL	WOLF	2	4	WOLF	TOOL	1	6	[0, 0, 0]	n/a	0	1	0	n/a	n/a	0.0	0	0	0	PAL2	0	R1028M
909.512	0.25	494686	STUDY_ORIENT	n/a	n/a	FENCE	SINK	3	5	FENCE	SINK	1	6	[0, 0, 0]	n/a	0	1	0	n/a	n/a	0.0	0	0	0	PAL2	0	R1028M
910.312	4.0	495086	STUDY_PAIR	n/a	wordpools/wordpool_EN.txt	FENCE	SINK	3	5	FENCE	SINK	1	6	[0, 0, 0]	n/a	0	1	0	n/a	n/a	0.0	0	0	0	PAL2	0	R1028M
915.33	0.25	497595	STUDY_ORIENT	n/a	n/a	GRAPE	CAT	4	2	GRAPE	CAT	1	6	[0, 0, 0]	n/a	0	1	0	n/a	n/a	0.0	0	0	0	PAL2	0	R1028M
916.297	4.0	498078	STUDY_PAIR	n/a	wordpools/wordpool_EN.txt	GRAPE	CAT	4	2	GRAPE	CAT	1	6	[0, 0, 0]	n/a	0	1	0	n/a	n/a	0.0	0	0	0	PAL2	0	R1028M
921.331	0.25	500595	STUDY_ORIENT	n/a	n/a	BARN	EAR	5	1	BARN	EAR	1	6	[0, 0, 0]	n/a	0	1	0	n/a	n/a	0.0	0	0	0	PAL2	0	R1028M
922.231	4.0	501045	STUDY_PAIR	n/a	wordpools/wordpool_EN.txt	BARN	EAR	5	1	BARN	EAR	1	6	[0, 0, 0]	n/a	0	1	0	n/a	n/a	0.0	0	0	0	PAL2	0	R1028M
927.249	0.25	503554	STUDY_ORIENT	n/a	n/a	MOUSE	GOAT	6	6	MOUSE	GOAT	1	6	[0, 0, 0]	n/a	0	1	0	n/a	n/a	0.0	0	0	0	PAL2	0	R1028M
928.216	4.0	504037	STUDY_PAIR	n/a	wordpools/wordpool_EN.txt	MOUSE	GOAT	6	6	MOUSE	GOAT	1	6	[0, 0, 0]	n/a	0	1	0	n/a	n/a	0.0	0	0	0	PAL2	0	R1028M
932.235	0.998	506047	START	n/a	n/a	n/a	n/a	-999	-999	n/a	n/a	-999	6	[-999, -999, -999]	n/a	0	1	0	n/a	n/a	0.0	0	0	0	PAL2	0	R1028M
933.233	0.017	506545	MATH_START	n/a	n/a	n/a	n/a	-999	-999	n/a	n/a	-999	6	[0, 0, 0]	n/a	0	1	0	n/a	n/a	0.0	0	0	0	PAL2	0	R1028M
933.25	3.434	506554	PROB	3.408	n/a	n/a	n/a	-999	-999	n/a	n/a	-999	6	[6, 3, 7]	16	0	1	0	n/a	n/a	0.0	0	0	0	PAL2	0	R1028M
936.684	2.251	508271	PROB	2.23	n/a	n/a	n/a	-999	-999	n/a	n/a	-999	6	[2, 2, 8]	12	0	1	0	n/a	n/a	0.0	0	0	0	PAL2	0	R1028M
938.935	5.001	509396	PROB	4.979	n/a	n/a	n/a	-999	-999	n/a	n/a	-999	6	[9, 3, 3]	15	0	1	0	n/a	n/a	0.0	0	0	0	PAL2	0	R1028M
943.936	3.717	511896	PROB	3.69	n/a	n/a	n/a	-999	-999	n/a	n/a	-999	6	[3, 8, 6]	17	0	1	0	n/a	n/a	0.0	0	0	0	PAL2	0	R1028M
947.653	4.677	513755	PROB	4.677	n/a	n/a	n/a	-999	-999	n/a	n/a	-999	6	[5, 9, 2]	16	0	1	0	n/a	n/a	0.0	0	0	0	PAL2	0	R1028M
952.33	0.007	516093	STOP	n/a	n/a	n/a	n/a	-999	-999	n/a	n/a	-999	6	[-999, -999, -999]	n/a	0	1	0	n/a	n/a	0.0	0	0	0	PAL2	0	R1028M
952.337	0.0	516096	MATH_END	n/a	n/a	n/a	n/a	-999	-999	n/a	n/a	-999	6	[0, 0, 0]	n/a	0	1	0	n/a	n/a	0.0	0	0	0	PAL2	0	R1028M
952.337	0.017	516096	TEST_START	n/a	n/a	n/a	n/a	-999	-999	n/a	n/a	-999	6	[0, 0, 0]	n/a	0	1	0	n/a	n/a	0.0	0	0	0	PAL2	0	R1028M
952.354	0.25	516105	TEST_ORIENT	n/a	n/a	BARN	EAR	5	1	BARN	EAR	1	6	[0, 0, 0]	n/a	0	1	0	n/a	n/a	0.0	0	0	0	PAL2	0	R1028M
953.172	4.6	516514	STIM_ON	n/a	n/a	BARN	EAR	5	1	BARN	EAR	1	6	[0, 0, 0]	n/a	1	1	4600	RTG1	RTG10	1000.0	50	230	300	PAL2	0	R1028M
953.387	4.0	516621	TEST_PROBE	n/a	wordpools/wordpool_EN.txt	BARN	EAR	5	1	BARN	EAR	1	6	[0, 0, 0]	n/a	1	1	4600	RTG1	RTG10	1000.0	50	230	300	PAL2	0	R1028M
953.387	1.248	516621	REC_START	n/a	n/a	n/a	n/a	5	-999	n/a	EAR	1	6	[0, 0, 0]	n/a	1	1	4600	RTG1	RTG10	1000.0	50	230	300	PAL2	0	R1028M
954.635	3.769	517245	REC_EVENT	1.248	n/a	BARN	EAR	5	1	BARN	EAR	1	6	[0, 0, 0]	n/a	1	1	4600	RTG1	RTG10	1000.0	50	230	300	PAL2	0	R1028M
958.404	0.017	519130	REC_END	n/a	n/a	n/a	n/a	5	-999	n/a	n/a	-999	6	[0, 0, 0]	n/a	0	1	0	n/a	n/a	0.0	0	0	0	PAL2	0	R1028M
958.421	0.25	519138	TEST_ORIENT	n/a	n/a	GRAPE	CAT	4	2	GRAPE	CAT	1	6	[0, 0, 0]	n/a	0	1	0	n/a	n/a	0.0	0	0	0	PAL2	0	R1028M
959.372	4.0	519614	TEST_PROBE	n/a	wordpools/wordpool_EN.txt	GRAPE	CAT	4	2	GRAPE	CAT	1	6	[0, 0, 0]	n/a	0	1	0	n/a	n/a	0.0	0	0	0	PAL2	0	R1028M
959.372	1.097	519614	REC_START	n/a	n/a	n/a	n/a	4	-999	n/a	CAT	1	6	[0, 0, 0]	n/a	0	1	0	n/a	n/a	0.0	0	0	0	PAL2	0	R1028M
960.469	3.92	520162	REC_EVENT	1.097	n/a	GRAPE	CAT	4	2	GRAPE	CAT	1	6	[0, 0, 0]	n/a	0	1	0	n/a	n/a	0.0	0	0	0	PAL2	0	R1028M
964.389	0.016	522122	REC_END	n/a	n/a	n/a	n/a	4	-999	n/a	n/a	-999	6	[0, 0, 0]	n/a	0	1	0	n/a	n/a	0.0	0	0	0	PAL2	0	R1028M
964.405	0.25	522130	TEST_ORIENT	n/a	n/a	CUBE	NOSE	1	3	NOSE	n/a	0	6	[0, 0, 0]	n/a	0	1	0	n/a	n/a	0.0	0	0	0	PAL2	0	R1028M
965.039	4.6	522447	STIM_ON	n/a	n/a	CUBE	NOSE	1	3	NOSE	n/a	0	6	[0, 0, 0]	n/a	1	1	4600	RTG1	RTG10	1000.0	50	230	300	PAL2	0	R1028M
965.24	4.0	522547	TEST_PROBE	n/a	wordpools/wordpool_EN.txt	CUBE	NOSE	1	3	NOSE	n/a	0	6	[0, 0, 0]	n/a	1	1	4600	RTG1	RTG10	1000.0	50	230	300	PAL2	0	R1028M
965.24	4.965	522547	REC_START	n/a	n/a	n/a	n/a	1	-999	n/a	n/a	0	6	[0, 0, 0]	n/a	1	1	4600	RTG1	RTG10	1000.0	50	230	300	PAL2	0	R1028M
970.205	0.052	525030	REC_EVENT	4.965	n/a	CUBE	NOSE	1	3	NOSE	<>	0	6	[0, 0, 0]	n/a	0	1	0	n/a	n/a	0.0	0	0	0	PAL2	0	R1028M
970.257	0.017	525056	REC_END	n/a	n/a	n/a	n/a	1	-999	n/a	n/a	-999	6	[0, 0, 0]	n/a	0	1	0	n/a	n/a	0.0	0	0	0	PAL2	0	R1028M
970.274	0.25	525064	TEST_ORIENT	n/a	n/a	TOOL	WOLF	2	4	WOLF	TOOL	1	6	[0, 0, 0]	n/a	0	1	0	n/a	n/a	0.0	0	0	0	PAL2	0	R1028M
971.291	4.0	525573	TEST_PROBE	n/a	wordpools/wordpool_EN.txt	TOOL	WOLF	2	4	WOLF	TOOL	1	6	[0, 0, 0]	n/a	0	1	0	n/a	n/a	0.0	0	0	0	PAL2	0	R1028M
971.291	0.923	525573	REC_START	n/a	n/a	n/a	n/a	2	-999	n/a	TOOL	1	6	[0, 0, 0]	n/a	0	1	0	n/a	n/a	0.0	0	0	0	PAL2	0	R1028M
972.214	4.095	526034	REC_EVENT	0.923	n/a	TOOL	WOLF	2	4	WOLF	TOOL	1	6	[0, 0, 0]	n/a	0	1	0	n/a	n/a	0.0	0	0	0	PAL2	0	R1028M
976.309	0.017	528081	REC_END	n/a	n/a	n/a	n/a	2	-999	n/a	n/a	-999	6	[0, 0, 0]	n/a	0	1	0	n/a	n/a	0.0	0	0	0	PAL2	0	R1028M
976.326	0.25	528090	TEST_ORIENT	n/a	n/a	FENCE	SINK	3	5	FENCE	SINK	1	6	[0, 0, 0]	n/a	0	1	0	n/a	n/a	0.0	0	0	0	PAL2	0	R1028M
977.069	4.6	528461	STIM_ON	n/a	n/a	FENCE	SINK	3	5	FENCE	SINK	1	6	[0, 0, 0]	n/a	1	1	4600	RTG1	RTG10	1000.0	50	230	300	PAL2	0	R1028M
977.276	0.0	528565	REC_START	n/a	n/a	n/a	n/a	3	-999	n/a	SINK	1	6	[0, 0, 0]	n/a	1	1	4600	RTG1	RTG10	1000.0	50	230	300	PAL2	0	R1028M
977.276	4.0	528565	TEST_PROBE	n/a	wordpools/wordpool_EN.txt	FENCE	SINK	3	5	FENCE	SINK	1	6	[0, 0, 0]	n/a	1	1	4600	RTG1	RTG10	1000.0	50	230	300	PAL2	0	R1028M
978.519	3.774	529186	REC_EVENT	1.243	n/a	FENCE	SINK	3	5	FENCE	SINK	1	6	[0, 0, 0]	n/a	1	1	4600	RTG1	RTG10	1000.0	50	230	300	PAL2	0	R1028M
982.293	0.017	531073	REC_END	n/a	n/a	n/a	n/a	3	-999	n/a	n/a	-999	6	[0, 0, 0]	n/a	0	1	0	n/a	n/a	0.0	0	0	0	PAL2	0	R1028M
982.31	0.25	531081	TEST_ORIENT	n/a	n/a	MOUSE	GOAT	6	6	MOUSE	GOAT	1	6	[0, 0, 0]	n/a	0	1	0	n/a	n/a	0.0	0	0	0	PAL2	0	R1028M
983.11	4.0	531481	TEST_PROBE	n/a	wordpools/wordpool_EN.txt	MOUSE	GOAT	6	6	MOUSE	GOAT	1	6	[0, 0, 0]	n/a	0	1	0	n/a	n/a	0.0	0	0	0	PAL2	0	R1028M
983.11	1.11	531481	REC_START	n/a	n/a	n/a	n/a	6	-999	n/a	GOAT	1	6	[0, 0, 0]	n/a	0	1	0	n/a	n/a	0.0	0	0	0	PAL2	0	R1028M
984.22	3.908	532036	REC_EVENT	1.11	n/a	MOUSE	GOAT	6	6	MOUSE	GOAT	1	6	[0, 0, 0]	n/a	0	1	0	n/a	n/a	0.0	0	0	0	PAL2	0	R1028M
988.128	5.13	533990	REC_END	n/a	n/a	n/a	n/a	6	-999	n/a	n/a	-999	6	[0, 0, 0]	n/a	0	1	0	n/a	n/a	0.0	0	0	0	PAL2	0	R1028M
993.258	10.44	536555	ENCODING_START	n/a	n/a	n/a	n/a	0	-999	n/a	n/a	-999	7	[0, 0, 0]	n/a	0	1	0	n/a	n/a	0.0	0	0	0	PAL2	0	R1028M
1003.698	0.25	541774	STUDY_ORIENT	n/a	n/a	CAKE	SNAIL	1	3	CAKE	SNAIL	1	7	[0, 0, 0]	n/a	0	1	0	n/a	n/a	0.0	0	0	0	PAL2	0	R1028M
1004.482	4.6	542166	STIM_ON	n/a	n/a	CAKE	SNAIL	1	3	CAKE	SNAIL	1	7	[0, 0, 0]	n/a	1	1	4600	RTG1	RTG10	1000.0	50	230	300	PAL2	0	R1028M
1004.698	4.0	542274	STUDY_PAIR	n/a	wordpools/wordpool_EN.txt	CAKE	SNAIL	1	3	CAKE	SNAIL	1	7	[0, 0, 0]	n/a	1	1	4600	RTG1	RTG10	1000.0	50	230	300	PAL2	0	R1028M
1009.732	0.25	544791	STUDY_ORIENT	n/a	n/a	BOY	RAIN	2	2	BOY	RAIN	1	7	[0, 0, 0]	n/a	0	1	0	n/a	n/a	0.0	0	0	0	PAL2	0	R1028M
1010.649	4.0	545250	STUDY_PAIR	n/a	wordpools/wordpool_EN.txt	BOY	RAIN	2	2	BOY	RAIN	1	7	[0, 0, 0]	n/a	0	1	0	n/a	n/a	0.0	0	0	0	PAL2	0	R1028M
1015.683	0.25	547766	STUDY_ORIENT	n/a	n/a	SHEET	SLEEVE	3	1	SHEET	SLEEVE	1	7	[0, 0, 0]	n/a	0	1	0	n/a	n/a	0.0	0	0	0	PAL2	0	R1028M
1016.463	4.6	548156	STIM_ON	n/a	n/a	SHEET	SLEEVE	3	1	SHEET	SLEEVE	1	7	[0, 0, 0]	n/a	1	1	4600	RTG1	RTG10	1000.0	50	230	300	PAL2	0	R1028M
1016.667	4.0	548258	STUDY_PAIR	n/a	wordpools/wordpool_EN.txt	SHEET	SLEEVE	3	1	SHEET	SLEEVE	1	7	[0, 0, 0]	n/a	1	1	4600	RTG1	RTG10	1000.0	50	230	300	PAL2	0	R1028M
1021.701	0.25	550775	STUDY_ORIENT	n/a	n/a	PARK	RAT	4	6	RAT	PARK	1	7	[0, 0, 0]	n/a	0	1	0	n/a	n/a	0.0	0	0	0	PAL2	0	R1028M
1022.551	4.0	551200	STUDY_PAIR	n/a	wordpools/wordpool_EN.txt	PARK	RAT	4	6	RAT	PARK	1	7	[0, 0, 0]	n/a	0	1	0	n/a	n/a	0.0	0	0	0	PAL2	0	R1028M
1027.569	0.25	553709	STUDY_ORIENT	n/a	n/a	SEA	CORN	5	5	SEA	CORN	1	7	[0, 0, 0]	n/a	0	1	0	n/a	n/a	0.0	0	0	0	PAL2	0	R1028M
1028.326	4.6	554087	STIM_ON	n/a	n/a	SEA	CORN	5	5	SEA	CORN	1	7	[0, 0, 0]	n/a	1	1	4600	RTG1	RTG10	1000.0	50	230	300	PAL2	0	R1028M
1028.553	4.0	554201	STUDY_PAIR	n/a	wordpools/wordpool_EN.txt	SEA	CORN	5	5	SEA	CORN	1	7	[0, 0, 0]	n/a	1	1	4600	RTG1	RTG10	1000.0	50	230	300	PAL2	0	R1028M
1033.587	0.25	556717	STUDY_ORIENT	n/a	n/a	WHEEL	MILK	6	4	MILK	WHEEL	1	7	[0, 0, 0]	n/a	0	1	0	n/a	n/a	0.0	0	0	0	PAL2	0	R1028M
1034.386	4.0	557117	STUDY_PAIR	n/a	wordpools/wordpool_EN.txt	WHEEL	MILK	6	4	MILK	WHEEL	1	7	[0, 0, 0]	n/a	0	1	0	n/a	n/a	0.0	0	0	0	PAL2	0	R1028M
1038.388	0.999	559118	START	n/a	n/a	n/a	n/a	-999	-999	n/a	n/a	-999	7	[-999, -999, -999]	n/a	0	1	0	n/a	n/a	0.0	0	0	0	PAL2	0	R1028M
1039.387	0.017	559617	MATH_START	n/a	n/a	n/a	n/a	-999	-999	n/a	n/a	-999	7	[0, 0, 0]	n/a	0	1	0	n/a	n/a	0.0	0	0	0	PAL2	0	R1028M
1039.404	3.585	559626	PROB	3.558	n/a	n/a	n/a	-999	-999	n/a	n/a	-999	7	[9, 7, 3]	19	0	1	0	n/a	n/a	0.0	0	0	0	PAL2	0	R1028M
1042.989	3.217	561418	PROB	3.197	n/a	n/a	n/a	-999	-999	n/a	n/a	-999	7	[3, 5, 1]	9	0	1	0	n/a	n/a	0.0	0	0	0	PAL2	0	R1028M
1046.206	3.551	563026	PROB	3.524	n/a	n/a	n/a	-999	-999	n/a	n/a	-999	7	[3, 4, 3]	10	0	1	0	n/a	n/a	0.0	0	0	0	PAL2	0	R1028M
1049.757	3.567	564802	PROB	3.533	n/a	n/a	n/a	-999	-999	n/a	n/a	-999	7	[8, 4, 1]	13	0	1	0	n/a	n/a	0.0	0	0	0	PAL2	0	R1028M
1053.324	2.701	566585	PROB	2.67	n/a	n/a	n/a	-999	-999	n/a	n/a	-999	7	[5, 2, 5]	12	0	1	0	n/a	n/a	0.0	0	0	0	PAL2	0	R1028M
1056.025	4.169	567935	PROB	4.169	n/a	n/a	n/a	-999	-999	n/a	n/a	-999	7	[8, 9, 4]	21	0	1	0	n/a	n/a	0.0	0	0	0	PAL2	0	R1028M
1060.194	0.015	570019	STOP	n/a	n/a	n/a	n/a	-999	-999	n/a	n/a	-999	7	[-999, -999, -999]	n/a	0	1	0	n/a	n/a	0.0	0	0	0	PAL2	0	R1028M
1060.209	0.0	570027	MATH_END	n/a	n/a	n/a	n/a	-999	-999	n/a	n/a	-999	7	[0, 0, 0]	n/a	0	1	0	n/a	n/a	0.0	0	0	0	PAL2	0	R1028M
1060.209	0.017	570027	TEST_START	n/a	n/a	n/a	n/a	-999	-999	n/a	n/a	-999	7	[0, 0, 0]	n/a	0	1	0	n/a	n/a	0.0	0	0	0	PAL2	0	R1028M
1060.226	0.25	570035	TEST_ORIENT	n/a	n/a	SHEET	SLEEVE	3	1	SHEET	SLEEVE	1	7	[0, 0, 0]	n/a	0	1	0	n/a	n/a	0.0	0	0	0	PAL2	0	R1028M
1061.259	4.0	570552	TEST_PROBE	n/a	wordpools/wordpool_EN.txt	SHEET	SLEEVE	3	1	SHEET	SLEEVE	1	7	[0, 0, 0]	n/a	0	1	0	n/a	n/a	0.0	0	0	0	PAL2	0	R1028M
1061.26	0.858	570552	REC_START	n/a	n/a	n/a	n/a	3	-999	n/a	SLEEVE	1	7	[0, 0, 0]	n/a	0	1	0	n/a	n/a	0.0	0	0	0	PAL2	0	R1028M
1062.118	4.169	570981	REC_EVENT	0.858	n/a	SHEET	SLEEVE	3	1	SHEET	SLEEVE	1	7	[0, 0, 0]	n/a	0	1	0	n/a	n/a	0.0	0	0	0	PAL2	0	R1028M
1066.287	0.023	573066	REC_END	n/a	n/a	n/a	n/a	3	-999	n/a	n/a	-999	7	[0, 0, 0]	n/a	0	1	0	n/a	n/a	0.0	0	0	0	PAL2	0	R1028M
1066.31	0.25	573077	TEST_ORIENT	n/a	n/a	BOY	RAIN	2	2	BOY	RAIN	1	7	[0, 0, 0]	n/a	0	1	0	n/a	n/a	0.0	0	0	0	PAL2	0	R1028M
1067.21	4.0	573527	TEST_PROBE	n/a	wordpools/wordpool_EN.txt	BOY	RAIN	2	2	BOY	RAIN	1	7	[0, 0, 0]	n/a	0	1	0	n/a	n/a	0.0	0	0	0	PAL2	0	R1028M
1067.211	0.752	573528	REC_START	n/a	n/a	n/a	n/a	2	-999	n/a	RAIN	1	7	[0, 0, 0]	n/a	0	1	0	n/a	n/a	0.0	0	0	0	PAL2	0	R1028M
1067.963	4.258	573904	REC_EVENT	0.752	n/a	BOY	RAIN	2	2	BOY	RAIN	1	7	[0, 0, 0]	n/a	0	1	0	n/a	n/a	0.0	0	0	0	PAL2	0	R1028M
1072.221	0.024	576032	REC_END	n/a	n/a	n/a	n/a	2	-999	n/a	n/a	-999	7	[0, 0, 0]	n/a	0	1	0	n/a	n/a	0.0	0	0	0	PAL2	0	R1028M
1072.245	0.25	576044	TEST_ORIENT	n/a	n/a	CAKE	SNAIL	1	3	CAKE	SNAIL	1	7	[0, 0, 0]	n/a	0	1	0	n/a	n/a	0.0	0	0	0	PAL2	0	R1028M
1073.245	4.0	576544	TEST_PROBE	n/a	wordpools/wordpool_EN.txt	CAKE	SNAIL	1	3	CAKE	SNAIL	1	7	[0, 0, 0]	n/a	0	1	0	n/a	n/a	0.0	0	0	0	PAL2	0	R1028M
1073.245	1.74	576544	REC_START	n/a	n/a	n/a	n/a	1	-999	n/a	SNAIL	1	7	[0, 0, 0]	n/a	0	1	0	n/a	n/a	0.0	0	0	0	PAL2	0	R1028M
1074.985	3.28	577414	REC_EVENT	1.74	n/a	CAKE	SNAIL	1	3	CAKE	SNAIL	1	7	[0, 0, 0]	n/a	0	1	0	n/a	n/a	0.0	0	0	0	PAL2	0	R1028M
1078.265	0.014	579054	REC_END	n/a	n/a	n/a	n/a	1	-999	n/a	n/a	-999	7	[0, 0, 0]	n/a	0	1	0	n/a	n/a	0.0	0	0	0	PAL2	0	R1028M
1078.279	0.25	579061	TEST_ORIENT	n/a	n/a	WHEEL	MILK	6	4	MILK	WHEEL	1	7	[0, 0, 0]	n/a	0	1	0	n/a	n/a	0.0	0	0	0	PAL2	0	R1028M
1079.129	4.0	579486	TEST_PROBE	n/a	wordpools/wordpool_EN.txt	WHEEL	MILK	6	4	MILK	WHEEL	1	7	[0, 0, 0]	n/a	0	1	0	n/a	n/a	0.0	0	0	0	PAL2	0	R1028M
1079.13	1.109	579487	REC_START	n/a	n/a	n/a	n/a	6	-999	n/a	WHEEL	1	7	[0, 0, 0]	n/a	0	1	0	n/a	n/a	0.0	0	0	0	PAL2	0	R1028M
1080.239	3.901	580041	REC_EVENT	1.109	n/a	WHEEL	MILK	6	4	MILK	WHEEL	1	7	[0, 0, 0]	n/a	0	1	0	n/a	n/a	0.0	0	0	0	PAL2	0	R1028M
1084.14	0.024	581991	REC_END	n/a	n/a	n/a	n/a	6	-999	n/a	n/a	-999	7	[0, 0, 0]	n/a	0	1	0	n/a	n/a	0.0	0	0	0	PAL2	0	R1028M
1084.164	0.25	582003	TEST_ORIENT	n/a	n/a	SEA	CORN	5	5	SEA	CORN	1	7	[0, 0, 0]	n/a	0	1	0	n/a	n/a	0.0	0	0	0	PAL2	0	R1028M
1085.147	4.0	582495	TEST_PROBE	n/a	wordpools/wordpool_EN.txt	SEA	CORN	5	5	SEA	CORN	1	7	[0, 0, 0]	n/a	0	1	0	n/a	n/a	0.0	0	0	0	PAL2	0	R1028M
1085.148	1.404	582495	REC_START	n/a	n/a	n/a	n/a	5	-999	n/a	CORN	1	7	[0, 0, 0]	n/a	0	1	0	n/a	n/a	0.0	0	0	0	PAL2	0	R1028M
1086.552	3.607	583197	REC_EVENT	1.404	n/a	SEA	CORN	5	5	SEA	CORN	1	7	[0, 0, 0]	n/a	0	1	0	n/a	n/a	0.0	0	0	0	PAL2	0	R1028M
1090.159	0.022	585000	REC_END	n/a	n/a	n/a	n/a	5	-999	n/a	n/a	-999	7	[0, 0, 0]	n/a	0	1	0	n/a	n/a	0.0	0	0	0	PAL2	0	R1028M
1090.181	0.25	585011	TEST_ORIENT	n/a	n/a	PARK	RAT	4	6	RAT	PARK	1	7	[0, 0, 0]	n/a	0	1	0	n/a	n/a	0.0	0	0	0	PAL2	0	R1028M
1091.048	4.0	585445	TEST_PROBE	n/a	wordpools/wordpool_EN.txt	PARK	RAT	4	6	RAT	PARK	1	7	[0, 0, 0]	n/a	0	1	0	n/a	n/a	0.0	0	0	0	PAL2	0	R1028M
1091.049	0.918	585445	REC_START	n/a	n/a	n/a	n/a	4	-999	n/a	PARK	1	7	[0, 0, 0]	n/a	0	1	0	n/a	n/a	0.0	0	0	0	PAL2	0	R1028M
1091.967	4.092	585904	REC_EVENT	0.918	n/a	PARK	RAT	4	6	RAT	PARK	1	7	[0, 0, 0]	n/a	0	1	0	n/a	n/a	0.0	0	0	0	PAL2	0	R1028M
1096.059	1.111	587950	REC_END	n/a	n/a	n/a	n/a	4	-999	n/a	n/a	-999	7	[0, 0, 0]	n/a	0	1	0	n/a	n/a	0.0	0	0	0	PAL2	0	R1028M
1097.17	10.448	588506	ENCODING_START	n/a	n/a	n/a	n/a	0	-999	n/a	n/a	-999	8	[0, 0, 0]	n/a	0	1	0	n/a	n/a	0.0	0	0	0	PAL2	0	R1028M
1107.618	0.25	593729	STUDY_ORIENT	n/a	n/a	SALT	BLOOM	1	5	BLOOM	SALT	1	8	[0, 0, 0]	n/a	0	1	0	n/a	n/a	0.0	0	0	0	PAL2	0	R1028M
1108.401	4.0	594121	STUDY_PAIR	n/a	wordpools/wordpool_EN.txt	SALT	BLOOM	1	5	BLOOM	SALT	1	8	[0, 0, 0]	n/a	0	1	0	n/a	n/a	0.0	0	0	0	PAL2	0	R1028M
1113.436	0.25	596638	STUDY_ORIENT	n/a	n/a	BATH	PALM	2	6	BATH	PALM	1	8	[0, 0, 0]	n/a	0	1	0	n/a	n/a	0.0	0	0	0	PAL2	0	R1028M
1114.085	4.6	596962	STIM_ON	n/a	n/a	BATH	PALM	2	6	BATH	PALM	1	8	[0, 0, 0]	n/a	1	1	4600	RTG1	RTG10	1000.0	50	230	300	PAL2	0	R1028M
1114.286	4.0	597063	STUDY_PAIR	n/a	wordpools/wordpool_EN.txt	BATH	PALM	2	6	BATH	PALM	1	8	[0, 0, 0]	n/a	1	1	4600	RTG1	RTG10	1000.0	50	230	300	PAL2	0	R1028M
1119.304	0.25	599571	STUDY_ORIENT	n/a	n/a	LAKE	GLASS	3	1	LAKE	GLASS	1	8	[0, 0, 0]	n/a	0	1	0	n/a	n/a	0.0	0	0	0	PAL2	0	R1028M
1120.154	4.0	599996	STUDY_PAIR	n/a	wordpools/wordpool_EN.txt	LAKE	GLASS	3	1	LAKE	GLASS	1	8	[0, 0, 0]	n/a	0	1	0	n/a	n/a	0.0	0	0	0	PAL2	0	R1028M
1125.172	0.25	602505	STUDY_ORIENT	n/a	n/a	DOLL	GEESE	4	2	GEESE	DOLL	1	8	[0, 0, 0]	n/a	0	1	0	n/a	n/a	0.0	0	0	0	PAL2	0	R1028M
1125.853	4.6	602846	STIM_ON	n/a	n/a	DOLL	GEESE	4	2	GEESE	DOLL	1	8	[0, 0, 0]	n/a	1	1	4600	RTG1	RTG10	1000.0	50	230	300	PAL2	0	R1028M
1126.055	4.0	602947	STUDY_PAIR	n/a	wordpools/wordpool_EN.txt	DOLL	GEESE	4	2	GEESE	DOLL	1	8	[0, 0, 0]	n/a	1	1	4600	RTG1	RTG10	1000.0	50	230	300	PAL2	0	R1028M
1131.073	0.25	605455	STUDY_ORIENT	n/a	n/a	MOON	SPOON	5	3	MOON	SPOON	1	8	[0, 0, 0]	n/a	0	1	0	n/a	n/a	0.0	0	0	0	PAL2	0	R1028M
1132.073	4.0	605955	STUDY_PAIR	n/a	wordpools/wordpool_EN.txt	MOON	SPOON	5	3	MOON	SPOON	1	8	[0, 0, 0]	n/a	0	1	0	n/a	n/a	0.0	0	0	0	PAL2	0	R1028M
1137.091	0.25	608464	STUDY_ORIENT	n/a	n/a	BAG	BLUSH	6	4	BAG	BLUSH	1	8	[0, 0, 0]	n/a	0	1	0	n/a	n/a	0.0	0	0	0	PAL2	0	R1028M
1137.841	4.6	608839	STIM_ON	n/a	n/a	BAG	BLUSH	6	4	BAG	BLUSH	1	8	[0, 0, 0]	n/a	1	1	4600	RTG1	RTG10	1000.0	50	230	300	PAL2	0	R1028M
1138.058	4.0	608948	STUDY_PAIR	n/a	wordpools/wordpool_EN.txt	BAG	BLUSH	6	4	BAG	BLUSH	1	8	[0, 0, 0]	n/a	1	1	4600	RTG1	RTG10	1000.0	50	230	300	PAL2	0	R1028M
1142.076	0.999	610956	START	n/a	n/a	n/a	n/a	-999	-999	n/a	n/a	-999	8	[-999, -999, -999]	n/a	0	1	0	n/a	n/a	0.0	0	0	0	PAL2	0	R1028M
1143.075	0.017	611456	MATH_START	n/a	n/a	n/a	n/a	-999	-999	n/a	n/a	-999	8	[0, 0, 0]	n/a	0	1	0	n/a	n/a	0.0	0	0	0	PAL2	0	R1028M
1143.092	4.834	611464	PROB	4.814	n/a	n/a	n/a	-999	-999	n/a	n/a	-999	8	[3, 4, 4]	11	0	1	0	n/a	n/a	0.0	0	0	0	PAL2	0	R1028M
1147.926	7.467	613881	PROB	7.444	n/a	n/a	n/a	-999	-999	n/a	n/a	-999	8	[7, 9, 7]	23	0	1	0	n/a	n/a	0.0	0	0	0	PAL2	0	R1028M
1155.393	3.452	617614	PROB	3.417	n/a	n/a	n/a	-999	-999	n/a	n/a	-999	8	[8, 7, 3]	18	0	1	0	n/a	n/a	0.0	0	0	0	PAL2	0	R1028M
1158.845	2.817	619340	PROB	2.797	n/a	n/a	n/a	-999	-999	n/a	n/a	-999	8	[4, 8, 6]	18	0	1	0	n/a	n/a	0.0	0	0	0	PAL2	0	R1028M
1161.662	3.492	620748	PROB	3.492	n/a	n/a	n/a	-999	-999	n/a	n/a	-999	8	[9, 2, 7]	18	0	1	0	n/a	n/a	0.0	0	0	0	PAL2	0	R1028M
1165.154	0.009	622494	STOP	n/a	n/a	n/a	n/a	-999	-999	n/a	n/a	-999	8	[-999, -999, -999]	n/a	0	1	0	n/a	n/a	0.0	0	0	0	PAL2	0	R1028M
1165.163	0.0	622499	TEST_START	n/a	n/a	n/a	n/a	-999	-999	n/a	n/a	-999	8	[0, 0, 0]	n/a	0	1	0	n/a	n/a	0.0	0	0	0	PAL2	0	R1028M
1165.163	0.017	622499	MATH_END	n/a	n/a	n/a	n/a	-999	-999	n/a	n/a	-999	8	[0, 0, 0]	n/a	0	1	0	n/a	n/a	0.0	0	0	0	PAL2	0	R1028M
1165.18	0.25	622507	TEST_ORIENT	n/a	n/a	LAKE	GLASS	3	1	LAKE	GLASS	1	8	[0, 0, 0]	n/a	0	1	0	n/a	n/a	0.0	0	0	0	PAL2	0	R1028M
1166.013	4.0	622924	TEST_PROBE	n/a	wordpools/wordpool_EN.txt	LAKE	GLASS	3	1	LAKE	GLASS	1	8	[0, 0, 0]	n/a	0	1	0	n/a	n/a	0.0	0	0	0	PAL2	0	R1028M
1166.014	1.097	622924	REC_START	n/a	n/a	n/a	n/a	3	-999	n/a	GLASS	1	8	[0, 0, 0]	n/a	0	1	0	n/a	n/a	0.0	0	0	0	PAL2	0	R1028M
1167.111	3.913	623473	REC_EVENT	1.097	n/a	LAKE	GLASS	3	1	LAKE	GLASS	1	8	[0, 0, 0]	n/a	0	1	0	n/a	n/a	0.0	0	0	0	PAL2	0	R1028M
1171.024	0.024	625429	REC_END	n/a	n/a	n/a	n/a	3	-999	n/a	n/a	-999	8	[0, 0, 0]	n/a	0	1	0	n/a	n/a	0.0	0	0	0	PAL2	0	R1028M
1171.048	0.25	625441	TEST_ORIENT	n/a	n/a	DOLL	GEESE	4	2	GEESE	DOLL	1	8	[0, 0, 0]	n/a	0	1	0	n/a	n/a	0.0	0	0	0	PAL2	0	R1028M
1171.914	4.0	625874	TEST_PROBE	n/a	wordpools/wordpool_EN.txt	DOLL	GEESE	4	2	GEESE	DOLL	1	8	[0, 0, 0]	n/a	0	1	0	n/a	n/a	0.0	0	0	0	PAL2	0	R1028M
1171.915	1.303	625874	REC_START	n/a	n/a	n/a	n/a	4	-999	n/a	DOLL	1	8	[0, 0, 0]	n/a	0	1	0	n/a	n/a	0.0	0	0	0	PAL2	0	R1028M
1173.218	3.707	626526	REC_EVENT	1.303	n/a	DOLL	GEESE	4	2	GEESE	DOLL	1	8	[0, 0, 0]	n/a	0	1	0	n/a	n/a	0.0	0	0	0	PAL2	0	R1028M
1176.925	0.024	628379	REC_END	n/a	n/a	n/a	n/a	4	-999	n/a	n/a	-999	8	[0, 0, 0]	n/a	0	1	0	n/a	n/a	0.0	0	0	0	PAL2	0	R1028M
1176.949	0.25	628391	TEST_ORIENT	n/a	n/a	MOON	SPOON	5	3	MOON	SPOON	1	8	[0, 0, 0]	n/a	0	1	0	n/a	n/a	0.0	0	0	0	PAL2	0	R1028M
1177.816	4.0	628824	TEST_PROBE	n/a	wordpools/wordpool_EN.txt	MOON	SPOON	5	3	MOON	SPOON	1	8	[0, 0, 0]	n/a	0	1	0	n/a	n/a	0.0	0	0	0	PAL2	0	R1028M
1177.816	0.835	628824	REC_START	n/a	n/a	n/a	n/a	5	-999	n/a	SPOON	1	8	[0, 0, 0]	n/a	0	1	0	n/a	n/a	0.0	0	0	0	PAL2	0	R1028M
1178.651	4.182	629242	REC_EVENT	0.835	n/a	MOON	SPOON	5	3	MOON	SPOON	1	8	[0, 0, 0]	n/a	0	1	0	n/a	n/a	0.0	0	0	0	PAL2	0	R1028M
1182.833	0.017	631333	REC_END	n/a	n/a	n/a	n/a	5	-999	n/a	n/a	-999	8	[0, 0, 0]	n/a	0	1	0	n/a	n/a	0.0	0	0	0	PAL2	0	R1028M
1182.85	0.25	631341	TEST_ORIENT	n/a	n/a	BAG	BLUSH	6	4	BAG	BLUSH	1	8	[0, 0, 0]	n/a	0	1	0	n/a	n/a	0.0	0	0	0	PAL2	0	R1028M
1183.85	4.0	631841	TEST_PROBE	n/a	wordpools/wordpool_EN.txt	BAG	BLUSH	6	4	BAG	BLUSH	1	8	[0, 0, 0]	n/a	0	1	0	n/a	n/a	0.0	0	0	0	PAL2	0	R1028M
1183.851	1.038	631842	REC_START	n/a	n/a	n/a	n/a	6	-999	n/a	BLUSH	1	8	[0, 0, 0]	n/a	0	1	0	n/a	n/a	0.0	0	0	0	PAL2	0	R1028M
1184.889	3.972	632361	REC_EVENT	1.038	n/a	BAG	BLUSH	6	4	BAG	BLUSH	1	8	[0, 0, 0]	n/a	0	1	0	n/a	n/a	0.0	0	0	0	PAL2	0	R1028M
1188.861	0.024	634346	REC_END	n/a	n/a	n/a	n/a	6	-999	n/a	n/a	-999	8	[0, 0, 0]	n/a	0	1	0	n/a	n/a	0.0	0	0	0	PAL2	0	R1028M
1188.885	0.25	634358	TEST_ORIENT	n/a	n/a	SALT	BLOOM	1	5	BLOOM	SALT	1	8	[0, 0, 0]	n/a	0	1	0	n/a	n/a	0.0	0	0	0	PAL2	0	R1028M
1189.885	4.0	634858	TEST_PROBE	n/a	wordpools/wordpool_EN.txt	SALT	BLOOM	1	5	BLOOM	SALT	1	8	[0, 0, 0]	n/a	0	1	0	n/a	n/a	0.0	0	0	0	PAL2	0	R1028M
1189.885	1.209	634858	REC_START	n/a	n/a	n/a	n/a	1	-999	n/a	SALT	1	8	[0, 0, 0]	n/a	0	1	0	n/a	n/a	0.0	0	0	0	PAL2	0	R1028M
1191.094	3.808	635463	REC_EVENT	1.209	n/a	SALT	BLOOM	1	5	BLOOM	SALT	1	8	[0, 0, 0]	n/a	0	1	0	n/a	n/a	0.0	0	0	0	PAL2	0	R1028M
1194.902	0.017	637367	REC_END	n/a	n/a	n/a	n/a	1	-999	n/a	n/a	-999	8	[0, 0, 0]	n/a	0	1	0	n/a	n/a	0.0	0	0	0	PAL2	0	R1028M
1194.919	0.25	637375	TEST_ORIENT	n/a	n/a	BATH	PALM	2	6	BATH	PALM	1	8	[0, 0, 0]	n/a	0	1	0	n/a	n/a	0.0	0	0	0	PAL2	0	R1028M
1195.819	4.0	637825	TEST_PROBE	n/a	wordpools/wordpool_EN.txt	BATH	PALM	2	6	BATH	PALM	1	8	[0, 0, 0]	n/a	0	1	0	n/a	n/a	0.0	0	0	0	PAL2	0	R1028M
1195.82	2.015	637826	REC_START	n/a	n/a	n/a	n/a	2	-999	n/a	PALM	1	8	[0, 0, 0]	n/a	0	1	0	n/a	n/a	0.0	0	0	0	PAL2	0	R1028M
1197.835	2.995	638833	REC_EVENT	2.015	n/a	BATH	PALM	2	6	BATH	PALM	1	8	[0, 0, 0]	n/a	0	1	0	n/a	n/a	0.0	0	0	0	PAL2	0	R1028M
1200.83	16.972	640330	REC_END	n/a	n/a	n/a	n/a	2	-999	n/a	n/a	-999	8	[0, 0, 0]	n/a	0	1	0	n/a	n/a	0.0	0	0	0	PAL2	0	R1028M
1217.802	10.44	648815	ENCODING_START	n/a	n/a	n/a	n/a	0	-999	n/a	n/a	-999	9	[0, 0, 0]	n/a	0	1	0	n/a	n/a	0.0	0	0	0	PAL2	0	R1028M
1228.242	0.25	654035	STUDY_ORIENT	n/a	n/a	BEACH	ARK	1	3	ARK	BEACH	1	9	[0, 0, 0]	n/a	0	1	0	n/a	n/a	0.0	0	0	0	PAL2	0	R1028M
1229.259	4.0	654543	STUDY_PAIR	n/a	wordpools/wordpool_EN.txt	BEACH	ARK	1	3	ARK	BEACH	1	9	[0, 0, 0]	n/a	0	1	0	n/a	n/a	0.0	0	0	0	PAL2	0	R1028M
1234.277	0.25	657052	STUDY_ORIENT	n/a	n/a	MAP	HORSE	2	4	HORSE	MAP	1	9	[0, 0, 0]	n/a	0	1	0	n/a	n/a	0.0	0	0	0	PAL2	0	R1028M
1235.003	4.6	657415	STIM_ON	n/a	n/a	MAP	HORSE	2	4	HORSE	MAP	1	9	[0, 0, 0]	n/a	1	1	4600	RTG1	RTG10	1000.0	50	230	300	PAL2	0	R1028M
1235.21	4.0	657519	STUDY_PAIR	n/a	wordpools/wordpool_EN.txt	MAP	HORSE	2	4	HORSE	MAP	1	9	[0, 0, 0]	n/a	1	1	4600	RTG1	RTG10	1000.0	50	230	300	PAL2	0	R1028M
1240.228	0.25	660027	STUDY_ORIENT	n/a	n/a	BUSH	CANE	3	5	BUSH	BUSH	0	9	[0, 0, 0]	n/a	0	1	0	n/a	n/a	0.0	0	0	0	PAL2	0	R1028M
1241.012	4.0	660419	STUDY_PAIR	n/a	wordpools/wordpool_EN.txt	BUSH	CANE	3	5	BUSH	BUSH	0	9	[0, 0, 0]	n/a	0	1	0	n/a	n/a	0.0	0	0	0	PAL2	0	R1028M
1246.046	0.25	662936	STUDY_ORIENT	n/a	n/a	PASTE	OAR	4	2	OAR	PASTE	1	9	[0, 0, 0]	n/a	0	1	0	n/a	n/a	0.0	0	0	0	PAL2	0	R1028M
1246.782	4.6	663304	STIM_ON	n/a	n/a	PASTE	OAR	4	2	OAR	PASTE	1	9	[0, 0, 0]	n/a	1	1	4600	RTG1	RTG10	1000.0	50	230	300	PAL2	0	R1028M
1246.996	4.0	663411	STUDY_PAIR	n/a	wordpools/wordpool_EN.txt	PASTE	OAR	4	2	OAR	PASTE	1	9	[0, 0, 0]	n/a	1	1	4600	RTG1	RTG10	1000.0	50	230	300	PAL2	0	R1028M
1252.014	0.25	665920	STUDY_ORIENT	n/a	n/a	STAR	WHALE	5	1	STAR	WHALE	1	9	[0, 0, 0]	n/a	0	1	0	n/a	n/a	0.0	0	0	0	PAL2	0	R1028M
1252.897	4.0	666361	STUDY_PAIR	n/a	wordpools/wordpool_EN.txt	STAR	WHALE	5	1	STAR	WHALE	1	9	[0, 0, 0]	n/a	0	1	0	n/a	n/a	0.0	0	0	0	PAL2	0	R1028M
1257.915	0.25	668870	STUDY_ORIENT	n/a	n/a	FOOT	DRESS	6	6	DRESS	FOOT	1	9	[0, 0, 0]	n/a	0	1	0	n/a	n/a	0.0	0	0	0	PAL2	0	R1028M
1258.634	4.6	669229	STIM_ON	n/a	n/a	FOOT	DRESS	6	6	DRESS	FOOT	1	9	[0, 0, 0]	n/a	1	1	4600	RTG1	RTG10	1000.0	50	230	300	PAL2	0	R1028M
1258.848	4.0	669336	STUDY_PAIR	n/a	wordpools/wordpool_EN.txt	FOOT	DRESS	6	6	DRESS	FOOT	1	9	[0, 0, 0]	n/a	1	1	4600	RTG1	RTG10	1000.0	50	230	300	PAL2	0	R1028M
1262.849	1.0	671337	START	n/a	n/a	n/a	n/a	-999	-999	n/a	n/a	-999	9	[-999, -999, -999]	n/a	0	1	0	n/a	n/a	0.0	0	0	0	PAL2	0	R1028M
1263.849	0.017	671837	MATH_START	n/a	n/a	n/a	n/a	-999	-999	n/a	n/a	-999	9	[0, 0, 0]	n/a	0	1	0	n/a	n/a	0.0	0	0	0	PAL2	0	R1028M
1263.866	3.051	671845	PROB	3.024	n/a	n/a	n/a	-999	-999	n/a	n/a	-999	9	[7, 1, 2]	10	0	1	0	n/a	n/a	0.0	0	0	0	PAL2	0	R1028M
1266.917	4.817	673370	PROB	4.797	n/a	n/a	n/a	-999	-999	n/a	n/a	-999	9	[4, 5, 7]	17	0	1	0	n/a	n/a	0.0	0	0	0	PAL2	0	R1028M
1271.734	2.651	675779	PROB	2.62	n/a	n/a	n/a	-999	-999	n/a	n/a	-999	9	[8, 3, 2]	13	0	1	0	n/a	n/a	0.0	0	0	0	PAL2	0	R1028M
1274.385	2.634	677104	PROB	2.601	n/a	n/a	n/a	-999	-999	n/a	n/a	-999	9	[2, 2, 2]	6	0	1	0	n/a	n/a	0.0	0	0	0	PAL2	0	R1028M
1277.019	3.967	678421	PROB	3.943	n/a	n/a	n/a	-999	-999	n/a	n/a	-999	9	[4, 3, 6]	13	0	1	0	n/a	n/a	0.0	0	0	0	PAL2	0	R1028M
1280.986	7.2	680404	PROB	7.2	n/a	n/a	n/a	-999	-999	n/a	n/a	-999	9	[3, 9, 8]	20	0	1	0	n/a	n/a	0.0	0	0	0	PAL2	0	R1028M
1288.186	0.018	684004	STOP	n/a	n/a	n/a	n/a	-999	-999	n/a	n/a	-999	9	[-999, -999, -999]	n/a	0	1	0	n/a	n/a	0.0	0	0	0	PAL2	0	R1028M
1288.204	0.0	684013	MATH_END	n/a	n/a	n/a	n/a	-999	-999	n/a	n/a	-999	9	[0, 0, 0]	n/a	0	1	0	n/a	n/a	0.0	0	0	0	PAL2	0	R1028M
1288.204	0.017	684013	TEST_START	n/a	n/a	n/a	n/a	-999	-999	n/a	n/a	-999	9	[0, 0, 0]	n/a	0	1	0	n/a	n/a	0.0	0	0	0	PAL2	0	R1028M
1288.221	0.25	684021	TEST_ORIENT	n/a	n/a	STAR	WHALE	5	1	STAR	WHALE	1	9	[0, 0, 0]	n/a	0	1	0	n/a	n/a	0.0	0	0	0	PAL2	0	R1028M
1289.255	4.0	684538	TEST_PROBE	n/a	wordpools/wordpool_EN.txt	STAR	WHALE	5	1	STAR	WHALE	1	9	[0, 0, 0]	n/a	0	1	0	n/a	n/a	0.0	0	0	0	PAL2	0	R1028M
1289.257	1.09	684539	REC_START	n/a	n/a	n/a	n/a	5	-999	n/a	WHALE	1	9	[0, 0, 0]	n/a	0	1	0	n/a	n/a	0.0	0	0	0	PAL2	0	R1028M
1290.347	3.935	685084	REC_EVENT	1.09	n/a	STAR	WHALE	5	1	STAR	WHALE	1	9	[0, 0, 0]	n/a	0	1	0	n/a	n/a	0.0	0	0	0	PAL2	0	R1028M
1294.282	0.024	687052	REC_END	n/a	n/a	n/a	n/a	5	-999	n/a	n/a	-999	9	[0, 0, 0]	n/a	0	1	0	n/a	n/a	0.0	0	0	0	PAL2	0	R1028M
1294.306	0.25	687064	TEST_ORIENT	n/a	n/a	PASTE	OAR	4	2	OAR	PASTE	1	9	[0, 0, 0]	n/a	0	1	0	n/a	n/a	0.0	0	0	0	PAL2	0	R1028M
1295.172	4.0	687496	TEST_PROBE	n/a	wordpools/wordpool_EN.txt	PASTE	OAR	4	2	OAR	PASTE	1	9	[0, 0, 0]	n/a	0	1	0	n/a	n/a	0.0	0	0	0	PAL2	0	R1028M
1295.173	1.048	687497	REC_START	n/a	n/a	n/a	n/a	4	-999	n/a	PASTE	1	9	[0, 0, 0]	n/a	0	1	0	n/a	n/a	0.0	0	0	0	PAL2	0	R1028M
1296.221	3.962	688021	REC_EVENT	1.048	n/a	PASTE	OAR	4	2	OAR	PASTE	1	9	[0, 0, 0]	n/a	0	1	0	n/a	n/a	0.0	0	0	0	PAL2	0	R1028M
1300.183	0.024	690002	REC_END	n/a	n/a	n/a	n/a	4	-999	n/a	n/a	-999	9	[0, 0, 0]	n/a	0	1	0	n/a	n/a	0.0	0	0	0	PAL2	0	R1028M
1300.207	0.25	690014	TEST_ORIENT	n/a	n/a	BEACH	ARK	1	3	ARK	BEACH	1	9	[0, 0, 0]	n/a	0	1	0	n/a	n/a	0.0	0	0	0	PAL2	0	R1028M
1301.074	4.0	690447	TEST_PROBE	n/a	wordpools/wordpool_EN.txt	BEACH	ARK	1	3	ARK	BEACH	1	9	[0, 0, 0]	n/a	0	1	0	n/a	n/a	0.0	0	0	0	PAL2	0	R1028M
1301.074	1.4	690447	REC_START	n/a	n/a	n/a	n/a	1	-999	n/a	BEACH	1	9	[0, 0, 0]	n/a	0	1	0	n/a	n/a	0.0	0	0	0	PAL2	0	R1028M
1302.474	3.617	691147	REC_EVENT	1.4	n/a	BEACH	ARK	1	3	ARK	BEACH	1	9	[0, 0, 0]	n/a	0	1	0	n/a	n/a	0.0	0	0	0	PAL2	0	R1028M
1306.091	0.017	692955	REC_END	n/a	n/a	n/a	n/a	1	-999	n/a	n/a	-999	9	[0, 0, 0]	n/a	0	1	0	n/a	n/a	0.0	0	0	0	PAL2	0	R1028M
1306.108	0.25	692964	TEST_ORIENT	n/a	n/a	MAP	HORSE	2	4	HORSE	MAP	1	9	[0, 0, 0]	n/a	0	1	0	n/a	n/a	0.0	0	0	0	PAL2	0	R1028M
1307.041	4.0	693430	TEST_PROBE	n/a	wordpools/wordpool_EN.txt	MAP	HORSE	2	4	HORSE	MAP	1	9	[0, 0, 0]	n/a	0	1	0	n/a	n/a	0.0	0	0	0	PAL2	0	R1028M
1307.042	1.717	693431	REC_START	n/a	n/a	n/a	n/a	2	-999	n/a	MAP	1	9	[0, 0, 0]	n/a	0	1	0	n/a	n/a	0.0	0	0	0	PAL2	0	R1028M
1308.759	3.293	694289	REC_EVENT	1.717	n/a	MAP	HORSE	2	4	HORSE	MAP	1	9	[0, 0, 0]	n/a	0	1	0	n/a	n/a	0.0	0	0	0	PAL2	0	R1028M
1312.052	0.007	695936	REC_END	n/a	n/a	n/a	n/a	2	-999	n/a	n/a	-999	9	[0, 0, 0]	n/a	0	1	0	n/a	n/a	0.0	0	0	0	PAL2	0	R1028M
1312.059	0.25	695939	TEST_ORIENT	n/a	n/a	BUSH	CANE	3	5	BUSH	BUSH	0	9	[0, 0, 0]	n/a	0	1	0	n/a	n/a	0.0	0	0	0	PAL2	0	R1028M
1313.093	4.0	696456	TEST_PROBE	n/a	wordpools/wordpool_EN.txt	BUSH	CANE	3	5	BUSH	BUSH	0	9	[0, 0, 0]	n/a	0	1	0	n/a	n/a	0.0	0	0	0	PAL2	0	R1028M
1313.093	3.795	696456	REC_START	n/a	n/a	n/a	n/a	3	-999	n/a	BUSH	0	9	[0, 0, 0]	n/a	0	1	0	n/a	n/a	0.0	0	0	0	PAL2	0	R1028M
1316.888	1.222	698353	REC_EVENT	3.795	n/a	BUSH	CANE	3	5	BUSH	BUSH	0	9	[0, 0, 0]	n/a	0	1	0	n/a	n/a	0.0	0	0	0	PAL2	0	R1028M
1318.11	0.017	698964	REC_END	n/a	n/a	n/a	n/a	3	-999	n/a	n/a	-999	9	[0, 0, 0]	n/a	0	1	0	n/a	n/a	0.0	0	0	0	PAL2	0	R1028M
1318.127	0.25	698973	TEST_ORIENT	n/a	n/a	FOOT	DRESS	6	6	DRESS	FOOT	1	9	[0, 0, 0]	n/a	0	1	0	n/a	n/a	0.0	0	0	0	PAL2	0	R1028M
1319.111	4.0	699465	TEST_PROBE	n/a	wordpools/wordpool_EN.txt	FOOT	DRESS	6	6	DRESS	FOOT	1	9	[0, 0, 0]	n/a	0	1	0	n/a	n/a	0.0	0	0	0	PAL2	0	R1028M
1319.111	0.864	699465	REC_START	n/a	n/a	n/a	n/a	6	-999	n/a	FOOT	1	9	[0, 0, 0]	n/a	0	1	0	n/a	n/a	0.0	0	0	0	PAL2	0	R1028M
1319.975	4.153	699897	REC_EVENT	0.864	n/a	FOOT	DRESS	6	6	DRESS	FOOT	1	9	[0, 0, 0]	n/a	0	1	0	n/a	n/a	0.0	0	0	0	PAL2	0	R1028M
1324.128	8.746	701973	REC_END	n/a	n/a	n/a	n/a	6	-999	n/a	n/a	-999	9	[0, 0, 0]	n/a	0	1	0	n/a	n/a	0.0	0	0	0	PAL2	0	R1028M
1332.874	10.441	706346	ENCODING_START	n/a	n/a	n/a	n/a	0	-999	n/a	n/a	-999	10	[0, 0, 0]	n/a	0	0	0	n/a	n/a	0.0	0	0	0	PAL2	0	R1028M
1343.315	0.25	711566	STUDY_ORIENT	n/a	n/a	FOOD	SEED	1	5	SEED	FOOD	1	10	[0, 0, 0]	n/a	0	0	0	n/a	n/a	0.0	0	0	0	PAL2	0	R1028M
1344.149	4.0	711982	STUDY_PAIR	n/a	wordpools/wordpool_EN.txt	FOOD	SEED	1	5	SEED	FOOD	1	10	[0, 0, 0]	n/a	0	0	0	n/a	n/a	0.0	0	0	0	PAL2	0	R1028M
1349.183	0.25	714499	STUDY_ORIENT	n/a	n/a	GOLD	CORD	2	4	CORD	GOLD	1	10	[0, 0, 0]	n/a	0	0	0	n/a	n/a	0.0	0	0	0	PAL2	0	R1028M
1350.183	4.0	714999	STUDY_PAIR	n/a	wordpools/wordpool_EN.txt	GOLD	CORD	2	4	CORD	GOLD	1	10	[0, 0, 0]	n/a	0	0	0	n/a	n/a	0.0	0	0	0	PAL2	0	R1028M
1355.201	0.25	717508	STUDY_ORIENT	n/a	n/a	TRUCK	FRUIT	3	3	FRUIT	TRUCK	1	10	[0, 0, 0]	n/a	0	0	0	n/a	n/a	0.0	0	0	0	PAL2	0	R1028M
1356.101	4.0	717958	STUDY_PAIR	n/a	wordpools/wordpool_EN.txt	TRUCK	FRUIT	3	3	FRUIT	TRUCK	1	10	[0, 0, 0]	n/a	0	0	0	n/a	n/a	0.0	0	0	0	PAL2	0	R1028M
1361.119	0.25	720467	STUDY_ORIENT	n/a	n/a	HORN	WAND	4	6	HORN	WAND	1	10	[0, 0, 0]	n/a	0	0	0	n/a	n/a	0.0	0	0	0	PAL2	0	R1028M
1361.969	4.0	720892	STUDY_PAIR	n/a	wordpools/wordpool_EN.txt	HORN	WAND	4	6	HORN	WAND	1	10	[0, 0, 0]	n/a	0	0	0	n/a	n/a	0.0	0	0	0	PAL2	0	R1028M
1367.003	0.25	723408	STUDY_ORIENT	n/a	n/a	TOAD	PIG	5	1	TOAD	PIG	1	10	[0, 0, 0]	n/a	0	0	0	n/a	n/a	0.0	0	0	0	PAL2	0	R1028M
1367.837	4.0	723825	STUDY_PAIR	n/a	wordpools/wordpool_EN.txt	TOAD	PIG	5	1	TOAD	PIG	1	10	[0, 0, 0]	n/a	0	0	0	n/a	n/a	0.0	0	0	0	PAL2	0	R1028M
1372.871	0.25	726342	STUDY_ORIENT	n/a	n/a	SHELL	BED	6	2	SHELL	BED	1	10	[0, 0, 0]	n/a	0	0	0	n/a	n/a	0.0	0	0	0	PAL2	0	R1028M
1373.754	4.0	726783	STUDY_PAIR	n/a	wordpools/wordpool_EN.txt	SHELL	BED	6	2	SHELL	BED	1	10	[0, 0, 0]	n/a	0	0	0	n/a	n/a	0.0	0	0	0	PAL2	0	R1028M
1377.756	0.999	728784	START	n/a	n/a	n/a	n/a	-999	-999	n/a	n/a	-999	10	[-999, -999, -999]	n/a	0	0	0	n/a	n/a	0.0	0	0	0	PAL2	0	R1028M
1378.755	0.017	729284	MATH_START	n/a	n/a	n/a	n/a	-999	-999	n/a	n/a	-999	10	[0, 0, 0]	n/a	0	0	0	n/a	n/a	0.0	0	0	0	PAL2	0	R1028M
1378.772	3.885	729292	PROB	3.854	n/a	n/a	n/a	-999	-999	n/a	n/a	-999	10	[9, 5, 3]	17	0	0	0	n/a	n/a	0.0	0	0	0	PAL2	0	R1028M
1382.657	2.5	731235	PROB	2.465	n/a	n/a	n/a	-999	-999	n/a	n/a	-999	10	[8, 2, 8]	18	0	0	0	n/a	n/a	0.0	0	0	0	PAL2	0	R1028M
1385.157	3.534	732484	PROB	3.501	n/a	n/a	n/a	-999	-999	n/a	n/a	-999	10	[4, 6, 6]	16	0	0	0	n/a	n/a	0.0	0	0	0	PAL2	0	R1028M
1388.691	3.017	734251	PROB	2.983	n/a	n/a	n/a	-999	-999	n/a	n/a	-999	10	[1, 4, 5]	10	0	0	0	n/a	n/a	0.0	0	0	0	PAL2	0	R1028M
1391.708	2.351	735760	PROB	2.326	n/a	n/a	n/a	-999	-999	n/a	n/a	-999	10	[3, 5, 5]	13	0	0	0	n/a	n/a	0.0	0	0	0	PAL2	0	R1028M
1394.059	4.639	736935	PROB	4.639	n/a	n/a	n/a	-999	-999	n/a	n/a	-999	10	[6, 5, 7]	18	0	0	0	n/a	n/a	0.0	0	0	0	PAL2	0	R1028M
1398.698	0.012	739254	STOP	n/a	n/a	n/a	n/a	-999	-999	n/a	n/a	-999	10	[-999, -999, -999]	n/a	0	0	0	n/a	n/a	0.0	0	0	0	PAL2	0	R1028M
1398.71	0.0	739260	TEST_START	n/a	n/a	n/a	n/a	-999	-999	n/a	n/a	-999	10	[0, 0, 0]	n/a	0	0	0	n/a	n/a	0.0	0	0	0	PAL2	0	R1028M
1398.71	0.016	739260	MATH_END	n/a	n/a	n/a	n/a	-999	-999	n/a	n/a	-999	10	[0, 0, 0]	n/a	0	0	0	n/a	n/a	0.0	0	0	0	PAL2	0	R1028M
1398.726	0.25	739268	TEST_ORIENT	n/a	n/a	TOAD	PIG	5	1	TOAD	PIG	1	10	[0, 0, 0]	n/a	0	0	0	n/a	n/a	0.0	0	0	0	PAL2	0	R1028M
1399.693	4.0	739752	TEST_PROBE	n/a	wordpools/wordpool_EN.txt	TOAD	PIG	5	1	TOAD	PIG	1	10	[0, 0, 0]	n/a	0	0	0	n/a	n/a	0.0	0	0	0	PAL2	0	R1028M
1399.694	1.376	739752	REC_START	n/a	n/a	n/a	n/a	5	-999	n/a	PIG	1	10	[0, 0, 0]	n/a	0	0	0	n/a	n/a	0.0	0	0	0	PAL2	0	R1028M
1401.07	3.657	740440	REC_EVENT	1.376	n/a	TOAD	PIG	5	1	TOAD	PIG	1	10	[0, 0, 0]	n/a	0	0	0	n/a	n/a	0.0	0	0	0	PAL2	0	R1028M
1404.727	0.017	742268	REC_END	n/a	n/a	n/a	n/a	5	-999	n/a	n/a	-999	10	[0, 0, 0]	n/a	0	0	0	n/a	n/a	0.0	0	0	0	PAL2	0	R1028M
1404.744	0.25	742277	TEST_ORIENT	n/a	n/a	SHELL	BED	6	2	SHELL	BED	1	10	[0, 0, 0]	n/a	0	0	0	n/a	n/a	0.0	0	0	0	PAL2	0	R1028M
1405.778	0.0	742794	REC_START	n/a	n/a	n/a	n/a	6	-999	n/a	BED	1	10	[0, 0, 0]	n/a	0	0	0	n/a	n/a	0.0	0	0	0	PAL2	0	R1028M
1405.778	4.0	742794	TEST_PROBE	n/a	wordpools/wordpool_EN.txt	SHELL	BED	6	2	SHELL	BED	1	10	[0, 0, 0]	n/a	0	0	0	n/a	n/a	0.0	0	0	0	PAL2	0	R1028M
1406.744	4.051	743277	REC_EVENT	0.966	n/a	SHELL	BED	6	2	SHELL	BED	1	10	[0, 0, 0]	n/a	0	0	0	n/a	n/a	0.0	0	0	0	PAL2	0	R1028M
1410.795	0.017	745302	REC_END	n/a	n/a	n/a	n/a	6	-999	n/a	n/a	-999	10	[0, 0, 0]	n/a	0	0	0	n/a	n/a	0.0	0	0	0	PAL2	0	R1028M
1410.812	0.25	745311	TEST_ORIENT	n/a	n/a	TRUCK	FRUIT	3	3	FRUIT	TRUCK	1	10	[0, 0, 0]	n/a	0	0	0	n/a	n/a	0.0	0	0	0	PAL2	0	R1028M
1411.696	4.0	745753	TEST_PROBE	n/a	wordpools/wordpool_EN.txt	TRUCK	FRUIT	3	3	FRUIT	TRUCK	1	10	[0, 0, 0]	n/a	0	0	0	n/a	n/a	0.0	0	0	0	PAL2	0	R1028M
1411.696	0.925	745753	REC_START	n/a	n/a	n/a	n/a	3	-999	n/a	TRUCK	1	10	[0, 0, 0]	n/a	0	0	0	n/a	n/a	0.0	0	0	0	PAL2	0	R1028M
1412.621	4.092	746215	REC_EVENT	0.925	n/a	TRUCK	FRUIT	3	3	FRUIT	TRUCK	1	10	[0, 0, 0]	n/a	0	0	0	n/a	n/a	0.0	0	0	0	PAL2	0	R1028M
1416.713	0.017	748261	REC_END	n/a	n/a	n/a	n/a	3	-999	n/a	n/a	-999	10	[0, 0, 0]	n/a	0	0	0	n/a	n/a	0.0	0	0	0	PAL2	0	R1028M
1416.73	0.25	748269	TEST_ORIENT	n/a	n/a	GOLD	CORD	2	4	CORD	GOLD	1	10	[0, 0, 0]	n/a	0	0	0	n/a	n/a	0.0	0	0	0	PAL2	0	R1028M
1417.563	4.0	748686	TEST_PROBE	n/a	wordpools/wordpool_EN.txt	GOLD	CORD	2	4	CORD	GOLD	1	10	[0, 0, 0]	n/a	0	0	0	n/a	n/a	0.0	0	0	0	PAL2	0	R1028M
1417.564	1.005	748686	REC_START	n/a	n/a	n/a	n/a	2	-999	n/a	GOLD	1	10	[0, 0, 0]	n/a	0	0	0	n/a	n/a	0.0	0	0	0	PAL2	0	R1028M
1418.569	4.005	749189	REC_EVENT	1.005	n/a	GOLD	CORD	2	4	CORD	GOLD	1	10	[0, 0, 0]	n/a	0	0	0	n/a	n/a	0.0	0	0	0	PAL2	0	R1028M
1422.574	0.024	751191	REC_END	n/a	n/a	n/a	n/a	2	-999	n/a	n/a	-999	10	[0, 0, 0]	n/a	0	0	0	n/a	n/a	0.0	0	0	0	PAL2	0	R1028M
1422.598	0.25	751203	TEST_ORIENT	n/a	n/a	FOOD	SEED	1	5	SEED	FOOD	1	10	[0, 0, 0]	n/a	0	0	0	n/a	n/a	0.0	0	0	0	PAL2	0	R1028M
1423.598	4.0	751703	TEST_PROBE	n/a	wordpools/wordpool_EN.txt	FOOD	SEED	1	5	SEED	FOOD	1	10	[0, 0, 0]	n/a	0	0	0	n/a	n/a	0.0	0	0	0	PAL2	0	R1028M
1423.598	1.152	751703	REC_START	n/a	n/a	n/a	n/a	1	-999	n/a	FOOD	1	10	[0, 0, 0]	n/a	0	0	0	n/a	n/a	0.0	0	0	0	PAL2	0	R1028M
1424.75	3.865	752279	REC_EVENT	1.152	n/a	FOOD	SEED	1	5	SEED	FOOD	1	10	[0, 0, 0]	n/a	0	0	0	n/a	n/a	0.0	0	0	0	PAL2	0	R1028M
1428.615	0.017	754211	REC_END	n/a	n/a	n/a	n/a	1	-999	n/a	n/a	-999	10	[0, 0, 0]	n/a	0	0	0	n/a	n/a	0.0	0	0	0	PAL2	0	R1028M
1428.632	0.25	754220	TEST_ORIENT	n/a	n/a	HORN	WAND	4	6	HORN	WAND	1	10	[0, 0, 0]	n/a	0	0	0	n/a	n/a	0.0	0	0	0	PAL2	0	R1028M
1429.583	0.0	754695	REC_START	n/a	n/a	n/a	n/a	4	-999	n/a	WAND	1	10	[0, 0, 0]	n/a	0	0	0	n/a	n/a	0.0	0	0	0	PAL2	0	R1028M
1429.583	4.0	754695	TEST_PROBE	n/a	wordpools/wordpool_EN.txt	HORN	WAND	4	6	HORN	WAND	1	10	[0, 0, 0]	n/a	0	0	0	n/a	n/a	0.0	0	0	0	PAL2	0	R1028M
1431.114	3.486	755461	REC_EVENT	1.531	n/a	HORN	WAND	4	6	HORN	WAND	1	10	[0, 0, 0]	n/a	0	0	0	n/a	n/a	0.0	0	0	0	PAL2	0	R1028M
1434.6	1.922	757203	REC_END	n/a	n/a	n/a	n/a	4	-999	n/a	n/a	-999	10	[0, 0, 0]	n/a	0	0	0	n/a	n/a	0.0	0	0	0	PAL2	0	R1028M
1436.522	10.447	758164	ENCODING_START	n/a	n/a	n/a	n/a	0	-999	n/a	n/a	-999	11	[0, 0, 0]	n/a	0	1	0	n/a	n/a	0.0	0	0	0	PAL2	0	R1028M
1446.969	0.25	763387	STUDY_ORIENT	n/a	n/a	SQUARE	BADGE	1	3	SQUARE	BADGE	1	11	[0, 0, 0]	n/a	0	1	0	n/a	n/a	0.0	0	0	0	PAL2	0	R1028M
1447.969	4.0	763887	STUDY_PAIR	n/a	wordpools/wordpool_EN.txt	SQUARE	BADGE	1	3	SQUARE	BADGE	1	11	[0, 0, 0]	n/a	0	1	0	n/a	n/a	0.0	0	0	0	PAL2	0	R1028M
1452.987	0.25	766396	STUDY_ORIENT	n/a	n/a	CAPE	BOOT	2	2	BOOT	CAPE	1	11	[0, 0, 0]	n/a	0	1	0	n/a	n/a	0.0	0	0	0	PAL2	0	R1028M
1453.987	4.0	766896	STUDY_PAIR	n/a	wordpools/wordpool_EN.txt	CAPE	BOOT	2	2	BOOT	CAPE	1	11	[0, 0, 0]	n/a	0	1	0	n/a	n/a	0.0	0	0	0	PAL2	0	R1028M
1459.005	0.25	769405	STUDY_ORIENT	n/a	n/a	DEER	POND	3	1	DEER	POND	1	11	[0, 0, 0]	n/a	0	1	0	n/a	n/a	0.0	0	0	0	PAL2	0	R1028M
1459.972	4.0	769888	STUDY_PAIR	n/a	wordpools/wordpool_EN.txt	DEER	POND	3	1	DEER	POND	1	11	[0, 0, 0]	n/a	0	1	0	n/a	n/a	0.0	0	0	0	PAL2	0	R1028M
1465.006	0.25	772405	STUDY_ORIENT	n/a	n/a	TENT	VASE	4	6	VASE	TENT	1	11	[0, 0, 0]	n/a	0	1	0	n/a	n/a	0.0	0	0	0	PAL2	0	R1028M
1465.99	4.0	772897	STUDY_PAIR	n/a	wordpools/wordpool_EN.txt	TENT	VASE	4	6	VASE	TENT	1	11	[0, 0, 0]	n/a	0	1	0	n/a	n/a	0.0	0	0	0	PAL2	0	R1028M
1471.024	0.25	775414	STUDY_ORIENT	n/a	n/a	VAN	CAGE	5	5	CAGE	VAN	1	11	[0, 0, 0]	n/a	0	1	0	n/a	n/a	0.0	0	0	0	PAL2	0	R1028M
1471.958	4.0	775880	STUDY_PAIR	n/a	wordpools/wordpool_EN.txt	VAN	CAGE	5	5	CAGE	VAN	1	11	[0, 0, 0]	n/a	0	1	0	n/a	n/a	0.0	0	0	0	PAL2	0	R1028M
1476.992	0.25	778397	STUDY_ORIENT	n/a	n/a	HOOF	PEN	6	4	HOOF	PEN	1	11	[0, 0, 0]	n/a	0	1	0	n/a	n/a	0.0	0	0	0	PAL2	0	R1028M
1477.875	4.0	778839	STUDY_PAIR	n/a	wordpools/wordpool_EN.txt	HOOF	PEN	6	4	HOOF	PEN	1	11	[0, 0, 0]	n/a	0	1	0	n/a	n/a	0.0	0	0	0	PAL2	0	R1028M
1481.876	1.0	780839	START	n/a	n/a	n/a	n/a	-999	-999	n/a	n/a	-999	11	[-999, -999, -999]	n/a	0	1	0	n/a	n/a	0.0	0	0	0	PAL2	0	R1028M
1482.876	0.017	781339	MATH_START	n/a	n/a	n/a	n/a	-999	-999	n/a	n/a	-999	11	[0, 0, 0]	n/a	0	1	0	n/a	n/a	0.0	0	0	0	PAL2	0	R1028M
1482.893	5.251	781347	PROB	5.229	n/a	n/a	n/a	-999	-999	n/a	n/a	-999	11	[8, 7, 7]	24	0	1	0	n/a	n/a	0.0	0	0	0	PAL2	0	R1028M
1488.144	2.517	783973	PROB	2.482	n/a	n/a	n/a	-999	-999	n/a	n/a	-999	11	[6, 4, 1]	11	0	1	0	n/a	n/a	0.0	0	0	0	PAL2	0	R1028M
1490.661	2.801	785231	PROB	2.781	n/a	n/a	n/a	-999	-999	n/a	n/a	-999	11	[8, 2, 6]	16	0	1	0	n/a	n/a	0.0	0	0	0	PAL2	0	R1028M
1493.462	4.751	786631	PROB	4.716	n/a	n/a	n/a	-999	-999	n/a	n/a	-999	11	[4, 9, 9]	22	0	1	0	n/a	n/a	0.0	0	0	0	PAL2	0	R1028M
1498.213	4.125	789007	PROB	4.125	n/a	n/a	n/a	-999	-999	n/a	n/a	-999	11	[6, 3, 8]	17	0	1	0	n/a	n/a	0.0	0	0	0	PAL2	0	R1028M
1502.338	0.009	791069	STOP	n/a	n/a	n/a	n/a	-999	-999	n/a	n/a	-999	11	[-999, -999, -999]	n/a	0	1	0	n/a	n/a	0.0	0	0	0	PAL2	0	R1028M
1502.347	0.0	791073	TEST_START	n/a	n/a	n/a	n/a	-999	-999	n/a	n/a	-999	11	[0, 0, 0]	n/a	0	1	0	n/a	n/a	0.0	0	0	0	PAL2	0	R1028M
1502.347	0.017	791073	MATH_END	n/a	n/a	n/a	n/a	-999	-999	n/a	n/a	-999	11	[0, 0, 0]	n/a	0	1	0	n/a	n/a	0.0	0	0	0	PAL2	0	R1028M
1502.364	0.25	791082	TEST_ORIENT	n/a	n/a	DEER	POND	3	1	DEER	POND	1	11	[0, 0, 0]	n/a	0	1	0	n/a	n/a	0.0	0	0	0	PAL2	0	R1028M
1502.994	4.6	791397	STIM_ON	n/a	n/a	DEER	POND	3	1	DEER	POND	1	11	[0, 0, 0]	n/a	1	1	4600	RTG1	RTG10	1000.0	50	230	300	PAL2	0	R1028M
1503.197	4.0	791498	TEST_PROBE	n/a	wordpools/wordpool_EN.txt	DEER	POND	3	1	DEER	POND	1	11	[0, 0, 0]	n/a	1	1	4600	RTG1	RTG10	1000.0	50	230	300	PAL2	0	R1028M
1503.198	1.14	791499	REC_START	n/a	n/a	n/a	n/a	3	-999	n/a	POND	1	11	[0, 0, 0]	n/a	1	1	4600	RTG1	RTG10	1000.0	50	230	300	PAL2	0	R1028M
1504.338	3.86	792069	REC_EVENT	1.14	n/a	DEER	POND	3	1	DEER	POND	1	11	[0, 0, 0]	n/a	1	1	4600	RTG1	RTG10	1000.0	50	230	300	PAL2	0	R1028M
1508.198	0.017	793999	REC_END	n/a	n/a	n/a	n/a	3	-999	n/a	n/a	-999	11	[0, 0, 0]	n/a	0	1	0	n/a	n/a	0.0	0	0	0	PAL2	0	R1028M
1508.215	0.25	794007	TEST_ORIENT	n/a	n/a	CAPE	BOOT	2	2	BOOT	CAPE	1	11	[0, 0, 0]	n/a	0	1	0	n/a	n/a	0.0	0	0	0	PAL2	0	R1028M
1509.082	4.0	794441	TEST_PROBE	n/a	wordpools/wordpool_EN.txt	CAPE	BOOT	2	2	BOOT	CAPE	1	11	[0, 0, 0]	n/a	0	1	0	n/a	n/a	0.0	0	0	0	PAL2	0	R1028M
1509.082	0.919	794441	REC_START	n/a	n/a	n/a	n/a	2	-999	n/a	CAPE	1	11	[0, 0, 0]	n/a	0	1	0	n/a	n/a	0.0	0	0	0	PAL2	0	R1028M
1510.001	4.098	794900	REC_EVENT	0.919	n/a	CAPE	BOOT	2	2	BOOT	CAPE	1	11	[0, 0, 0]	n/a	0	1	0	n/a	n/a	0.0	0	0	0	PAL2	0	R1028M
1514.099	0.017	796949	REC_END	n/a	n/a	n/a	n/a	2	-999	n/a	n/a	-999	11	[0, 0, 0]	n/a	0	1	0	n/a	n/a	0.0	0	0	0	PAL2	0	R1028M
1514.116	0.25	796957	TEST_ORIENT	n/a	n/a	SQUARE	BADGE	1	3	SQUARE	BADGE	1	11	[0, 0, 0]	n/a	0	1	0	n/a	n/a	0.0	0	0	0	PAL2	0	R1028M
1514.762	4.6	797280	STIM_ON	n/a	n/a	SQUARE	BADGE	1	3	SQUARE	BADGE	1	11	[0, 0, 0]	n/a	1	1	4600	RTG1	RTG10	1000.0	50	230	300	PAL2	0	R1028M
1514.966	4.0	797382	TEST_PROBE	n/a	wordpools/wordpool_EN.txt	SQUARE	BADGE	1	3	SQUARE	BADGE	1	11	[0, 0, 0]	n/a	1	1	4600	RTG1	RTG10	1000.0	50	230	300	PAL2	0	R1028M
1514.967	1.142	797383	REC_START	n/a	n/a	n/a	n/a	1	-999	n/a	BADGE	1	11	[0, 0, 0]	n/a	1	1	4600	RTG1	RTG10	1000.0	50	230	300	PAL2	0	R1028M
1516.109	3.868	797954	REC_EVENT	1.142	n/a	SQUARE	BADGE	1	3	SQUARE	BADGE	1	11	[0, 0, 0]	n/a	1	1	4600	RTG1	RTG10	1000.0	50	230	300	PAL2	0	R1028M
1519.977	0.024	799888	REC_END	n/a	n/a	n/a	n/a	1	-999	n/a	n/a	-999	11	[0, 0, 0]	n/a	0	1	0	n/a	n/a	0.0	0	0	0	PAL2	0	R1028M
1520.001	0.25	799900	TEST_ORIENT	n/a	n/a	HOOF	PEN	6	4	HOOF	PEN	1	11	[0, 0, 0]	n/a	0	1	0	n/a	n/a	0.0	0	0	0	PAL2	0	R1028M
1520.984	0.0	800391	REC_START	n/a	n/a	n/a	n/a	6	-999	n/a	PEN	1	11	[0, 0, 0]	n/a	0	1	0	n/a	n/a	0.0	0	0	0	PAL2	0	R1028M
1520.984	4.0	800391	TEST_PROBE	n/a	wordpools/wordpool_EN.txt	HOOF	PEN	6	4	HOOF	PEN	1	11	[0, 0, 0]	n/a	0	1	0	n/a	n/a	0.0	0	0	0	PAL2	0	R1028M
1521.946	4.049	800872	REC_EVENT	0.962	n/a	HOOF	PEN	6	4	HOOF	PEN	1	11	[0, 0, 0]	n/a	0	1	0	n/a	n/a	0.0	0	0	0	PAL2	0	R1028M
1525.995	0.023	802896	REC_END	n/a	n/a	n/a	n/a	6	-999	n/a	n/a	-999	11	[0, 0, 0]	n/a	0	1	0	n/a	n/a	0.0	0	0	0	PAL2	0	R1028M
1526.018	0.25	802908	TEST_ORIENT	n/a	n/a	VAN	CAGE	5	5	CAGE	VAN	1	11	[0, 0, 0]	n/a	0	1	0	n/a	n/a	0.0	0	0	0	PAL2	0	R1028M
1526.805	4.6	803301	STIM_ON	n/a	n/a	VAN	CAGE	5	5	CAGE	VAN	1	11	[0, 0, 0]	n/a	1	1	4600	RTG1	RTG10	1000.0	50	230	300	PAL2	0	R1028M
1527.019	4.0	803408	TEST_PROBE	n/a	wordpools/wordpool_EN.txt	VAN	CAGE	5	5	CAGE	VAN	1	11	[0, 0, 0]	n/a	1	1	4600	RTG1	RTG10	1000.0	50	230	300	PAL2	0	R1028M
1527.019	1.285	803408	REC_START	n/a	n/a	n/a	n/a	5	-999	n/a	VAN	1	11	[0, 0, 0]	n/a	1	1	4600	RTG1	RTG10	1000.0	50	230	300	PAL2	0	R1028M
1528.304	3.732	804051	REC_EVENT	1.285	n/a	VAN	CAGE	5	5	CAGE	VAN	1	11	[0, 0, 0]	n/a	1	1	4600	RTG1	RTG10	1000.0	50	230	300	PAL2	0	R1028M
1532.036	0.017	805916	REC_END	n/a	n/a	n/a	n/a	5	-999	n/a	n/a	-999	11	[0, 0, 0]	n/a	0	1	0	n/a	n/a	0.0	0	0	0	PAL2	0	R1028M
1532.053	0.25	805925	TEST_ORIENT	n/a	n/a	TENT	VASE	4	6	VASE	TENT	1	11	[0, 0, 0]	n/a	0	1	0	n/a	n/a	0.0	0	0	0	PAL2	0	R1028M
1532.853	4.0	806325	TEST_PROBE	n/a	wordpools/wordpool_EN.txt	TENT	VASE	4	6	VASE	TENT	1	11	[0, 0, 0]	n/a	0	1	0	n/a	n/a	0.0	0	0	0	PAL2	0	R1028M
1532.854	0.993	806325	REC_START	n/a	n/a	n/a	n/a	4	-999	n/a	TENT	1	11	[0, 0, 0]	n/a	0	1	0	n/a	n/a	0.0	0	0	0	PAL2	0	R1028M
1533.847	4.017	806822	REC_EVENT	0.993	n/a	TENT	VASE	4	6	VASE	TENT	1	11	[0, 0, 0]	n/a	0	1	0	n/a	n/a	0.0	0	0	0	PAL2	0	R1028M
1537.864	2.098	808830	REC_END	n/a	n/a	n/a	n/a	4	-999	n/a	n/a	-999	11	[0, 0, 0]	n/a	0	1	0	n/a	n/a	0.0	0	0	0	PAL2	0	R1028M
1539.962	10.444	809879	ENCODING_START	n/a	n/a	n/a	n/a	0	-999	n/a	n/a	-999	12	[0, 0, 0]	n/a	0	1	0	n/a	n/a	0.0	0	0	0	PAL2	0	R1028M
1550.406	0.25	815100	STUDY_ORIENT	n/a	n/a	STORM	WEB	1	3	STORM	n/a	0	12	[0, 0, 0]	n/a	0	1	0	n/a	n/a	0.0	0	0	0	PAL2	0	R1028M
1551.207	4.0	815501	STUDY_PAIR	n/a	wordpools/wordpool_EN.txt	STORM	WEB	1	3	STORM	n/a	0	12	[0, 0, 0]	n/a	0	1	0	n/a	n/a	0.0	0	0	0	PAL2	0	R1028M
1556.241	0.25	818018	STUDY_ORIENT	n/a	n/a	SKUNK	SNOW	2	2	SKUNK	SNOW	1	12	[0, 0, 0]	n/a	0	1	0	n/a	n/a	0.0	0	0	0	PAL2	0	R1028M
1557.058	4.0	818426	STUDY_PAIR	n/a	wordpools/wordpool_EN.txt	SKUNK	SNOW	2	2	SKUNK	SNOW	1	12	[0, 0, 0]	n/a	0	1	0	n/a	n/a	0.0	0	0	0	PAL2	0	R1028M
1562.092	0.25	820943	STUDY_ORIENT	n/a	n/a	CROW	RAKE	3	1	CROW	RAKE	1	12	[0, 0, 0]	n/a	0	1	0	n/a	n/a	0.0	0	0	0	PAL2	0	R1028M
1562.926	4.0	821360	STUDY_PAIR	n/a	wordpools/wordpool_EN.txt	CROW	RAKE	3	1	CROW	RAKE	1	12	[0, 0, 0]	n/a	0	1	0	n/a	n/a	0.0	0	0	0	PAL2	0	R1028M
1567.96	0.25	823877	STUDY_ORIENT	n/a	n/a	ICE	CLAY	4	4	ICE	CLAY	1	12	[0, 0, 0]	n/a	0	1	0	n/a	n/a	0.0	0	0	0	PAL2	0	R1028M
1568.827	4.0	824310	STUDY_PAIR	n/a	wordpools/wordpool_EN.txt	ICE	CLAY	4	4	ICE	CLAY	1	12	[0, 0, 0]	n/a	0	1	0	n/a	n/a	0.0	0	0	0	PAL2	0	R1028M
1573.861	0.25	826827	STUDY_ORIENT	n/a	n/a	AXE	DESK	5	5	AXE	DESK	1	12	[0, 0, 0]	n/a	0	1	0	n/a	n/a	0.0	0	0	0	PAL2	0	R1028M
1574.712	4.0	827252	STUDY_PAIR	n/a	wordpools/wordpool_EN.txt	AXE	DESK	5	5	AXE	DESK	1	12	[0, 0, 0]	n/a	0	1	0	n/a	n/a	0.0	0	0	0	PAL2	0	R1028M
1579.746	0.25	829769	STUDY_ORIENT	n/a	n/a	MOLE	SMOKE	6	6	SMOKE	MOLE	1	12	[0, 0, 0]	n/a	0	1	0	n/a	n/a	0.0	0	0	0	PAL2	0	R1028M
1580.529	4.0	830160	STUDY_PAIR	n/a	wordpools/wordpool_EN.txt	MOLE	SMOKE	6	6	SMOKE	MOLE	1	12	[0, 0, 0]	n/a	0	1	0	n/a	n/a	0.0	0	0	0	PAL2	0	R1028M
1584.53	1.0	832161	START	n/a	n/a	n/a	n/a	-999	-999	n/a	n/a	-999	12	[-999, -999, -999]	n/a	0	1	0	n/a	n/a	0.0	0	0	0	PAL2	0	R1028M
1585.53	0.017	832661	MATH_START	n/a	n/a	n/a	n/a	-999	-999	n/a	n/a	-999	12	[0, 0, 0]	n/a	0	1	0	n/a	n/a	0.0	0	0	0	PAL2	0	R1028M
1585.547	3.417	832669	PROB	3.391	n/a	n/a	n/a	-999	-999	n/a	n/a	-999	12	[6, 4, 3]	13	0	1	0	n/a	n/a	0.0	0	0	0	PAL2	0	R1028M
1588.964	3.068	834377	PROB	3.046	n/a	n/a	n/a	-999	-999	n/a	n/a	-999	12	[3, 1, 1]	5	0	1	0	n/a	n/a	0.0	0	0	0	PAL2	0	R1028M
1592.032	2.382	835911	PROB	2.354	n/a	n/a	n/a	-999	-999	n/a	n/a	-999	12	[7, 1, 3]	11	0	1	0	n/a	n/a	0.0	0	0	0	PAL2	0	R1028M
1594.414	2.435	837102	PROB	2.412	n/a	n/a	n/a	-999	-999	n/a	n/a	-999	12	[6, 1, 5]	12	0	1	0	n/a	n/a	0.0	0	0	0	PAL2	0	R1028M
1596.849	4.801	838320	PROB	4.769	n/a	n/a	n/a	-999	-999	n/a	n/a	-999	12	[7, 5, 4]	16	0	1	0	n/a	n/a	0.0	0	0	0	PAL2	0	R1028M
1601.65	4.864	840720	PROB	4.864	n/a	n/a	n/a	-999	-999	n/a	n/a	-999	12	[9, 9, 7]	25	0	1	0	n/a	n/a	0.0	0	0	0	PAL2	0	R1028M
1606.514	0.004	843152	STOP	n/a	n/a	n/a	n/a	-999	-999	n/a	n/a	-999	12	[-999, -999, -999]	n/a	0	1	0	n/a	n/a	0.0	0	0	0	PAL2	0	R1028M
1606.518	0.0	843154	MATH_END	n/a	n/a	n/a	n/a	-999	-999	n/a	n/a	-999	12	[0, 0, 0]	n/a	0	1	0	n/a	n/a	0.0	0	0	0	PAL2	0	R1028M
1606.518	0.017	843154	TEST_START	n/a	n/a	n/a	n/a	-999	-999	n/a	n/a	-999	12	[0, 0, 0]	n/a	0	1	0	n/a	n/a	0.0	0	0	0	PAL2	0	R1028M
1606.535	0.25	843162	TEST_ORIENT	n/a	n/a	CROW	RAKE	3	1	CROW	RAKE	1	12	[0, 0, 0]	n/a	0	1	0	n/a	n/a	0.0	0	0	0	PAL2	0	R1028M
1607.518	4.0	843654	TEST_PROBE	n/a	wordpools/wordpool_EN.txt	CROW	RAKE	3	1	CROW	RAKE	1	12	[0, 0, 0]	n/a	0	1	0	n/a	n/a	0.0	0	0	0	PAL2	0	R1028M
1607.519	1.77	843654	REC_START	n/a	n/a	n/a	n/a	3	-999	n/a	RAKE	1	12	[0, 0, 0]	n/a	0	1	0	n/a	n/a	0.0	0	0	0	PAL2	0	R1028M
1609.289	3.257	844539	REC_EVENT	1.77	n/a	CROW	RAKE	3	1	CROW	RAKE	1	12	[0, 0, 0]	n/a	0	1	0	n/a	n/a	0.0	0	0	0	PAL2	0	R1028M
1612.546	0.023	846167	REC_END	n/a	n/a	n/a	n/a	3	-999	n/a	n/a	-999	12	[0, 0, 0]	n/a	0	1	0	n/a	n/a	0.0	0	0	0	PAL2	0	R1028M
1612.569	0.25	846179	TEST_ORIENT	n/a	n/a	SKUNK	SNOW	2	2	SKUNK	SNOW	1	12	[0, 0, 0]	n/a	0	1	0	n/a	n/a	0.0	0	0	0	PAL2	0	R1028M
1613.307	4.6	846548	STIM_ON	n/a	n/a	SKUNK	SNOW	2	2	SKUNK	SNOW	1	12	[0, 0, 0]	n/a	1	1	4600	RTG1	RTG10	1000.0	50	230	300	PAL2	0	R1028M
1613.519	4.0	846654	TEST_PROBE	n/a	wordpools/wordpool_EN.txt	SKUNK	SNOW	2	2	SKUNK	SNOW	1	12	[0, 0, 0]	n/a	1	1	4600	RTG1	RTG10	1000.0	50	230	300	PAL2	0	R1028M
1613.52	1.023	846654	REC_START	n/a	n/a	n/a	n/a	2	-999	n/a	SNOW	1	12	[0, 0, 0]	n/a	1	1	4600	RTG1	RTG10	1000.0	50	230	300	PAL2	0	R1028M
1614.543	3.987	847166	REC_EVENT	1.023	n/a	SKUNK	SNOW	2	2	SKUNK	SNOW	1	12	[0, 0, 0]	n/a	1	1	4600	RTG1	RTG10	1000.0	50	230	300	PAL2	0	R1028M
1618.53	0.024	849159	REC_END	n/a	n/a	n/a	n/a	2	-999	n/a	n/a	-999	12	[0, 0, 0]	n/a	0	1	0	n/a	n/a	0.0	0	0	0	PAL2	0	R1028M
1618.554	0.25	849171	TEST_ORIENT	n/a	n/a	STORM	WEB	1	3	STORM	n/a	0	12	[0, 0, 0]	n/a	0	1	0	n/a	n/a	0.0	0	0	0	PAL2	0	R1028M
1619.504	4.0	849646	TEST_PROBE	n/a	wordpools/wordpool_EN.txt	STORM	WEB	1	3	STORM	n/a	0	12	[0, 0, 0]	n/a	0	1	0	n/a	n/a	0.0	0	0	0	PAL2	0	R1028M
1619.504	4.713	849646	REC_START	n/a	n/a	n/a	n/a	1	-999	n/a	n/a	0	12	[0, 0, 0]	n/a	0	1	0	n/a	n/a	0.0	0	0	0	PAL2	0	R1028M
1624.217	0.304	852002	REC_EVENT	4.713	n/a	STORM	WEB	1	3	STORM	<>	0	12	[0, 0, 0]	n/a	0	1	0	n/a	n/a	0.0	0	0	0	PAL2	0	R1028M
1624.521	0.017	852154	REC_END	n/a	n/a	n/a	n/a	1	-999	n/a	n/a	-999	12	[0, 0, 0]	n/a	0	1	0	n/a	n/a	0.0	0	0	0	PAL2	0	R1028M
1624.538	0.25	852163	TEST_ORIENT	n/a	n/a	ICE	CLAY	4	4	ICE	CLAY	1	12	[0, 0, 0]	n/a	0	1	0	n/a	n/a	0.0	0	0	0	PAL2	0	R1028M
1625.174	4.6	852481	STIM_ON	n/a	n/a	ICE	CLAY	4	4	ICE	CLAY	1	12	[0, 0, 0]	n/a	1	1	4600	RTG1	RTG10	1000.0	50	230	300	PAL2	0	R1028M
1625.387	4.0	852587	TEST_PROBE	n/a	wordpools/wordpool_EN.txt	ICE	CLAY	4	4	ICE	CLAY	1	12	[0, 0, 0]	n/a	1	1	4600	RTG1	RTG10	1000.0	50	230	300	PAL2	0	R1028M
1625.388	1.211	852588	REC_START	n/a	n/a	n/a	n/a	4	-999	n/a	CLAY	1	12	[0, 0, 0]	n/a	1	1	4600	RTG1	RTG10	1000.0	50	230	300	PAL2	0	R1028M
1626.599	3.799	853193	REC_EVENT	1.211	n/a	ICE	CLAY	4	4	ICE	CLAY	1	12	[0, 0, 0]	n/a	1	1	4600	RTG1	RTG10	1000.0	50	230	300	PAL2	0	R1028M
1630.398	0.024	855092	REC_END	n/a	n/a	n/a	n/a	4	-999	n/a	n/a	-999	12	[0, 0, 0]	n/a	0	1	0	n/a	n/a	0.0	0	0	0	PAL2	0	R1028M
1630.422	0.25	855104	TEST_ORIENT	n/a	n/a	AXE	DESK	5	5	AXE	DESK	1	12	[0, 0, 0]	n/a	0	1	0	n/a	n/a	0.0	0	0	0	PAL2	0	R1028M
1631.273	4.0	855530	TEST_PROBE	n/a	wordpools/wordpool_EN.txt	AXE	DESK	5	5	AXE	DESK	1	12	[0, 0, 0]	n/a	0	1	0	n/a	n/a	0.0	0	0	0	PAL2	0	R1028M
1631.273	1.241	855530	REC_START	n/a	n/a	n/a	n/a	5	-999	n/a	DESK	1	12	[0, 0, 0]	n/a	0	1	0	n/a	n/a	0.0	0	0	0	PAL2	0	R1028M
1632.514	3.786	856150	REC_EVENT	1.241	n/a	AXE	DESK	5	5	AXE	DESK	1	12	[0, 0, 0]	n/a	0	1	0	n/a	n/a	0.0	0	0	0	PAL2	0	R1028M
1636.3	0.024	858043	REC_END	n/a	n/a	n/a	n/a	5	-999	n/a	n/a	-999	12	[0, 0, 0]	n/a	0	1	0	n/a	n/a	0.0	0	0	0	PAL2	0	R1028M
1636.324	0.25	858055	TEST_ORIENT	n/a	n/a	MOLE	SMOKE	6	6	SMOKE	MOLE	1	12	[0, 0, 0]	n/a	0	1	0	n/a	n/a	0.0	0	0	0	PAL2	0	R1028M
1637.146	4.6	858466	STIM_ON	n/a	n/a	MOLE	SMOKE	6	6	SMOKE	MOLE	1	12	[0, 0, 0]	n/a	1	1	4600	RTG1	RTG10	1000.0	50	230	300	PAL2	0	R1028M
1637.357	4.0	858572	TEST_PROBE	n/a	wordpools/wordpool_EN.txt	MOLE	SMOKE	6	6	SMOKE	MOLE	1	12	[0, 0, 0]	n/a	1	1	4600	RTG1	RTG10	1000.0	50	230	300	PAL2	0	R1028M
1637.358	0.979	858572	REC_START	n/a	n/a	n/a	n/a	6	-999	n/a	MOLE	1	12	[0, 0, 0]	n/a	1	1	4600	RTG1	RTG10	1000.0	50	230	300	PAL2	0	R1028M
1638.337	4.032	859061	REC_EVENT	0.979	n/a	MOLE	SMOKE	6	6	SMOKE	MOLE	1	12	[0, 0, 0]	n/a	1	1	4600	RTG1	RTG10	1000.0	50	230	300	PAL2	0	R1028M
1642.369	76.209	861077	REC_END	n/a	n/a	n/a	n/a	6	-999	n/a	n/a	-999	12	[0, 0, 0]	n/a	0	1	0	n/a	n/a	0.0	0	0	0	PAL2	0	R1028M
1718.578	10.448	899178	ENCODING_START	n/a	n/a	n/a	n/a	0	-999	n/a	n/a	-999	13	[0, 0, 0]	n/a	0	0	0	n/a	n/a	0.0	0	0	0	PAL2	0	R1028M
1729.026	0.25	904401	STUDY_ORIENT	n/a	n/a	SWAMP	SHIP	1	1	SWAMP	SHIP	1	13	[0, 0, 0]	n/a	0	0	0	n/a	n/a	0.0	0	0	0	PAL2	0	R1028M
1729.959	4.0	904868	STUDY_PAIR	n/a	wordpools/wordpool_EN.txt	SWAMP	SHIP	1	1	SWAMP	SHIP	1	13	[0, 0, 0]	n/a	0	0	0	n/a	n/a	0.0	0	0	0	PAL2	0	R1028M
1734.977	0.25	907377	STUDY_ORIENT	n/a	n/a	DIME	WORLD	2	6	DIME	WORLD	1	13	[0, 0, 0]	n/a	0	0	0	n/a	n/a	0.0	0	0	0	PAL2	0	R1028M
1735.844	4.0	907810	STUDY_PAIR	n/a	wordpools/wordpool_EN.txt	DIME	WORLD	2	6	DIME	WORLD	1	13	[0, 0, 0]	n/a	0	0	0	n/a	n/a	0.0	0	0	0	PAL2	0	R1028M
1740.878	0.25	910327	STUDY_ORIENT	n/a	n/a	TOE	STEAK	3	5	STEAK	TOE	1	13	[0, 0, 0]	n/a	0	0	0	n/a	n/a	0.0	0	0	0	PAL2	0	R1028M
1741.895	4.0	910835	STUDY_PAIR	n/a	wordpools/wordpool_EN.txt	TOE	STEAK	3	5	STEAK	TOE	1	13	[0, 0, 0]	n/a	0	0	0	n/a	n/a	0.0	0	0	0	PAL2	0	R1028M
1746.929	0.25	913352	STUDY_ORIENT	n/a	n/a	PURSE	LAWN	4	2	LAWN	PURSE	1	13	[0, 0, 0]	n/a	0	0	0	n/a	n/a	0.0	0	0	0	PAL2	0	R1028M
1747.929	4.0	913852	STUDY_PAIR	n/a	wordpools/wordpool_EN.txt	PURSE	LAWN	4	2	LAWN	PURSE	1	13	[0, 0, 0]	n/a	0	0	0	n/a	n/a	0.0	0	0	0	PAL2	0	R1028M
1752.947	0.25	916361	STUDY_ORIENT	n/a	n/a	STEM	SUIT	5	3	SUIT	STEM	1	13	[0, 0, 0]	n/a	0	0	0	n/a	n/a	0.0	0	0	0	PAL2	0	R1028M
1753.73	4.0	916752	STUDY_PAIR	n/a	wordpools/wordpool_EN.txt	STEM	SUIT	5	3	SUIT	STEM	1	13	[0, 0, 0]	n/a	0	0	0	n/a	n/a	0.0	0	0	0	PAL2	0	R1028M
1758.748	0.25	919261	STUDY_ORIENT	n/a	n/a	MOTH	HEART	6	4	HEART	MOTH	1	13	[0, 0, 0]	n/a	0	0	0	n/a	n/a	0.0	0	0	0	PAL2	0	R1028M
1759.648	4.0	919711	STUDY_PAIR	n/a	wordpools/wordpool_EN.txt	MOTH	HEART	6	4	HEART	MOTH	1	13	[0, 0, 0]	n/a	0	0	0	n/a	n/a	0.0	0	0	0	PAL2	0	R1028M
1763.65	0.999	921712	START	n/a	n/a	n/a	n/a	-999	-999	n/a	n/a	-999	13	[-999, -999, -999]	n/a	0	0	0	n/a	n/a	0.0	0	0	0	PAL2	0	R1028M
1764.649	0.017	922211	MATH_START	n/a	n/a	n/a	n/a	-999	-999	n/a	n/a	-999	13	[0, 0, 0]	n/a	0	0	0	n/a	n/a	0.0	0	0	0	PAL2	0	R1028M
1764.666	4.568	922220	PROB	4.536	n/a	n/a	n/a	-999	-999	n/a	n/a	-999	13	[3, 4, 3]	10	0	0	0	n/a	n/a	0.0	0	0	0	PAL2	0	R1028M
1769.234	6.451	924503	PROB	6.432	n/a	n/a	n/a	-999	-999	n/a	n/a	-999	13	[8, 3, 5]	16	0	0	0	n/a	n/a	0.0	0	0	0	PAL2	0	R1028M
1775.685	3.401	927728	PROB	3.381	n/a	n/a	n/a	-999	-999	n/a	n/a	-999	13	[6, 3, 1]	10	0	0	0	n/a	n/a	0.0	0	0	0	PAL2	0	R1028M
1779.086	4.964	929429	PROB	4.964	n/a	n/a	n/a	-999	-999	n/a	n/a	-999	13	[6, 2, 7]	15	0	0	0	n/a	n/a	0.0	0	0	0	PAL2	0	R1028M
1784.05	0.003	931911	STOP	n/a	n/a	n/a	n/a	-999	-999	n/a	n/a	-999	13	[-999, -999, -999]	n/a	0	0	0	n/a	n/a	0.0	0	0	0	PAL2	0	R1028M
1784.053	0.0	931912	MATH_END	n/a	n/a	n/a	n/a	-999	-999	n/a	n/a	-999	13	[0, 0, 0]	n/a	0	0	0	n/a	n/a	0.0	0	0	0	PAL2	0	R1028M
1784.053	0.017	931912	TEST_START	n/a	n/a	n/a	n/a	-999	-999	n/a	n/a	-999	13	[0, 0, 0]	n/a	0	0	0	n/a	n/a	0.0	0	0	0	PAL2	0	R1028M
1784.07	0.25	931921	TEST_ORIENT	n/a	n/a	SWAMP	SHIP	1	1	SWAMP	SHIP	1	13	[0, 0, 0]	n/a	0	0	0	n/a	n/a	0.0	0	0	0	PAL2	0	R1028M
1785.037	4.0	932404	TEST_PROBE	n/a	wordpools/wordpool_EN.txt	SWAMP	SHIP	1	1	SWAMP	SHIP	1	13	[0, 0, 0]	n/a	0	0	0	n/a	n/a	0.0	0	0	0	PAL2	0	R1028M
1785.037	2.065	932404	REC_START	n/a	n/a	n/a	n/a	1	-999	n/a	SHIP	1	13	[0, 0, 0]	n/a	0	0	0	n/a	n/a	0.0	0	0	0	PAL2	0	R1028M
1787.102	2.952	933436	REC_EVENT	2.065	n/a	SWAMP	SHIP	1	1	SWAMP	SHIP	1	13	[0, 0, 0]	n/a	0	0	0	n/a	n/a	0.0	0	0	0	PAL2	0	R1028M
1790.054	0.017	934912	REC_END	n/a	n/a	n/a	n/a	1	-999	n/a	n/a	-999	13	[0, 0, 0]	n/a	0	0	0	n/a	n/a	0.0	0	0	0	PAL2	0	R1028M
1790.071	0.25	934921	TEST_ORIENT	n/a	n/a	PURSE	LAWN	4	2	LAWN	PURSE	1	13	[0, 0, 0]	n/a	0	0	0	n/a	n/a	0.0	0	0	0	PAL2	0	R1028M
1791.005	0.0	935388	REC_START	n/a	n/a	n/a	n/a	4	-999	n/a	PURSE	1	13	[0, 0, 0]	n/a	0	0	0	n/a	n/a	0.0	0	0	0	PAL2	0	R1028M
1791.005	4.0	935388	TEST_PROBE	n/a	wordpools/wordpool_EN.txt	PURSE	LAWN	4	2	LAWN	PURSE	1	13	[0, 0, 0]	n/a	0	0	0	n/a	n/a	0.0	0	0	0	PAL2	0	R1028M
1791.987	4.035	935879	REC_EVENT	0.982	n/a	PURSE	LAWN	4	2	LAWN	PURSE	1	13	[0, 0, 0]	n/a	0	0	0	n/a	n/a	0.0	0	0	0	PAL2	0	R1028M
1796.022	0.017	937896	REC_END	n/a	n/a	n/a	n/a	4	-999	n/a	n/a	-999	13	[0, 0, 0]	n/a	0	0	0	n/a	n/a	0.0	0	0	0	PAL2	0	R1028M
1796.039	0.25	937904	TEST_ORIENT	n/a	n/a	STEM	SUIT	5	3	SUIT	STEM	1	13	[0, 0, 0]	n/a	0	0	0	n/a	n/a	0.0	0	0	0	PAL2	0	R1028M
1796.873	4.0	938321	TEST_PROBE	n/a	wordpools/wordpool_EN.txt	STEM	SUIT	5	3	SUIT	STEM	1	13	[0, 0, 0]	n/a	0	0	0	n/a	n/a	0.0	0	0	0	PAL2	0	R1028M
1796.873	0.892	938321	REC_START	n/a	n/a	n/a	n/a	5	-999	n/a	STEM	1	13	[0, 0, 0]	n/a	0	0	0	n/a	n/a	0.0	0	0	0	PAL2	0	R1028M
1797.765	4.125	938767	REC_EVENT	0.892	n/a	STEM	SUIT	5	3	SUIT	STEM	1	13	[0, 0, 0]	n/a	0	0	0	n/a	n/a	0.0	0	0	0	PAL2	0	R1028M
1801.89	0.017	940830	REC_END	n/a	n/a	n/a	n/a	5	-999	n/a	n/a	-999	13	[0, 0, 0]	n/a	0	0	0	n/a	n/a	0.0	0	0	0	PAL2	0	R1028M
1801.907	0.25	940838	TEST_ORIENT	n/a	n/a	MOTH	HEART	6	4	HEART	MOTH	1	13	[0, 0, 0]	n/a	0	0	0	n/a	n/a	0.0	0	0	0	PAL2	0	R1028M
1802.707	4.0	941238	TEST_PROBE	n/a	wordpools/wordpool_EN.txt	MOTH	HEART	6	4	HEART	MOTH	1	13	[0, 0, 0]	n/a	0	0	0	n/a	n/a	0.0	0	0	0	PAL2	0	R1028M
1802.708	1.878	941239	REC_START	n/a	n/a	n/a	n/a	6	-999	n/a	MOTH	1	13	[0, 0, 0]	n/a	0	0	0	n/a	n/a	0.0	0	0	0	PAL2	0	R1028M
1804.586	3.149	942177	REC_EVENT	1.878	n/a	MOTH	HEART	6	4	HEART	MOTH	1	13	[0, 0, 0]	n/a	0	0	0	n/a	n/a	0.0	0	0	0	PAL2	0	R1028M
1807.735	0.023	943752	REC_END	n/a	n/a	n/a	n/a	6	-999	n/a	n/a	-999	13	[0, 0, 0]	n/a	0	0	0	n/a	n/a	0.0	0	0	0	PAL2	0	R1028M
1807.758	0.25	943763	TEST_ORIENT	n/a	n/a	TOE	STEAK	3	5	STEAK	TOE	1	13	[0, 0, 0]	n/a	0	0	0	n/a	n/a	0.0	0	0	0	PAL2	0	R1028M
1808.575	4.0	944172	TEST_PROBE	n/a	wordpools/wordpool_EN.txt	TOE	STEAK	3	5	STEAK	TOE	1	13	[0, 0, 0]	n/a	0	0	0	n/a	n/a	0.0	0	0	0	PAL2	0	R1028M
1808.575	0.916	944172	REC_START	n/a	n/a	n/a	n/a	3	-999	n/a	TOE	1	13	[0, 0, 0]	n/a	0	0	0	n/a	n/a	0.0	0	0	0	PAL2	0	R1028M
1809.491	4.101	944630	REC_EVENT	0.916	n/a	TOE	STEAK	3	5	STEAK	TOE	1	13	[0, 0, 0]	n/a	0	0	0	n/a	n/a	0.0	0	0	0	PAL2	0	R1028M
1813.592	0.017	946680	REC_END	n/a	n/a	n/a	n/a	3	-999	n/a	n/a	-999	13	[0, 0, 0]	n/a	0	0	0	n/a	n/a	0.0	0	0	0	PAL2	0	R1028M
1813.609	0.25	946689	TEST_ORIENT	n/a	n/a	DIME	WORLD	2	6	DIME	WORLD	1	13	[0, 0, 0]	n/a	0	0	0	n/a	n/a	0.0	0	0	0	PAL2	0	R1028M
1814.425	4.0	947096	TEST_PROBE	n/a	wordpools/wordpool_EN.txt	DIME	WORLD	2	6	DIME	WORLD	1	13	[0, 0, 0]	n/a	0	0	0	n/a	n/a	0.0	0	0	0	PAL2	0	R1028M
1814.426	0.775	947097	REC_START	n/a	n/a	n/a	n/a	2	-999	n/a	WORLD	1	13	[0, 0, 0]	n/a	0	0	0	n/a	n/a	0.0	0	0	0	PAL2	0	R1028M
1815.201	4.242	947484	REC_EVENT	0.775	n/a	DIME	WORLD	2	6	DIME	WORLD	1	13	[0, 0, 0]	n/a	0	0	0	n/a	n/a	0.0	0	0	0	PAL2	0	R1028M
1819.443	5.671	949605	REC_END	n/a	n/a	n/a	n/a	2	-999	n/a	n/a	-999	13	[0, 0, 0]	n/a	0	0	0	n/a	n/a	0.0	0	0	0	PAL2	0	R1028M
1825.114	10.45	952440	ENCODING_START	n/a	n/a	n/a	n/a	0	-999	n/a	n/a	-999	14	[0, 0, 0]	n/a	0	0	0	n/a	n/a	0.0	0	0	0	PAL2	0	R1028M
1835.564	0.25	957665	STUDY_ORIENT	n/a	n/a	ROCK	CHAIR	1	5	CHAIR	ROCK	1	14	[0, 0, 0]	n/a	0	0	0	n/a	n/a	0.0	0	0	0	PAL2	0	R1028M
1836.497	4.0	958131	STUDY_PAIR	n/a	wordpools/wordpool_EN.txt	ROCK	CHAIR	1	5	CHAIR	ROCK	1	14	[0, 0, 0]	n/a	0	0	0	n/a	n/a	0.0	0	0	0	PAL2	0	R1028M
1841.515	0.25	960640	STUDY_ORIENT	n/a	n/a	PLANE	ARM	2	6	ARM	PLANE	1	14	[0, 0, 0]	n/a	0	0	0	n/a	n/a	0.0	0	0	0	PAL2	0	R1028M
1842.332	4.0	961049	STUDY_PAIR	n/a	wordpools/wordpool_EN.txt	PLANE	ARM	2	6	ARM	PLANE	1	14	[0, 0, 0]	n/a	0	0	0	n/a	n/a	0.0	0	0	0	PAL2	0	R1028M
1847.366	0.25	963565	STUDY_ORIENT	n/a	n/a	FROG	JAIL	3	1	JAIL	FROG	1	14	[0, 0, 0]	n/a	0	0	0	n/a	n/a	0.0	0	0	0	PAL2	0	R1028M
1848.15	4.0	963957	STUDY_PAIR	n/a	wordpools/wordpool_EN.txt	FROG	JAIL	3	1	JAIL	FROG	1	14	[0, 0, 0]	n/a	0	0	0	n/a	n/a	0.0	0	0	0	PAL2	0	R1028M
1853.184	0.25	966474	STUDY_ORIENT	n/a	n/a	VINE	HAT	4	4	HAT	STEM	0	14	[0, 0, 0]	n/a	0	0	0	n/a	n/a	0.0	0	0	0	PAL2	0	R1028M
1854.051	4.0	966907	STUDY_PAIR	n/a	wordpools/wordpool_EN.txt	VINE	HAT	4	4	HAT	STEM	0	14	[0, 0, 0]	n/a	0	0	0	n/a	n/a	0.0	0	0	0	PAL2	0	R1028M
1859.085	0.25	969424	STUDY_ORIENT	n/a	n/a	BOMB	JUDGE	5	3	JUDGE	BOMB	1	14	[0, 0, 0]	n/a	0	0	0	n/a	n/a	0.0	0	0	0	PAL2	0	R1028M
1859.935	4.0	969849	STUDY_PAIR	n/a	wordpools/wordpool_EN.txt	BOMB	JUDGE	5	3	JUDGE	BOMB	1	14	[0, 0, 0]	n/a	0	0	0	n/a	n/a	0.0	0	0	0	PAL2	0	R1028M
1864.953	0.25	972358	STUDY_ORIENT	n/a	n/a	FLAME	TEETH	6	2	TEETH	FLAME	1	14	[0, 0, 0]	n/a	0	0	0	n/a	n/a	0.0	0	0	0	PAL2	0	R1028M
1865.919	4.0	972841	STUDY_PAIR	n/a	wordpools/wordpool_EN.txt	FLAME	TEETH	6	2	TEETH	FLAME	1	14	[0, 0, 0]	n/a	0	0	0	n/a	n/a	0.0	0	0	0	PAL2	0	R1028M
1869.921	0.999	974842	START	n/a	n/a	n/a	n/a	-999	-999	n/a	n/a	-999	14	[-999, -999, -999]	n/a	0	0	0	n/a	n/a	0.0	0	0	0	PAL2	0	R1028M
1870.92	0.017	975341	MATH_START	n/a	n/a	n/a	n/a	-999	-999	n/a	n/a	-999	14	[0, 0, 0]	n/a	0	0	0	n/a	n/a	0.0	0	0	0	PAL2	0	R1028M
1870.937	3.634	975350	PROB	3.601	n/a	n/a	n/a	-999	-999	n/a	n/a	-999	14	[1, 6, 3]	10	0	0	0	n/a	n/a	0.0	0	0	0	PAL2	0	R1028M
1874.571	5.351	977166	PROB	5.327	n/a	n/a	n/a	-999	-999	n/a	n/a	-999	14	[4, 5, 9]	18	0	0	0	n/a	n/a	0.0	0	0	0	PAL2	0	R1028M
1879.922	3.5	979842	PROB	3.471	n/a	n/a	n/a	-999	-999	n/a	n/a	-999	14	[9, 2, 9]	20	0	0	0	n/a	n/a	0.0	0	0	0	PAL2	0	R1028M
1883.422	5.452	981591	PROB	5.42	n/a	n/a	n/a	-999	-999	n/a	n/a	-999	14	[6, 7, 2]	15	0	0	0	n/a	n/a	0.0	0	0	0	PAL2	0	R1028M
1888.874	4.496	984317	PROB	4.496	n/a	n/a	n/a	-999	-999	n/a	n/a	-999	14	[7, 5, 8]	20	0	0	0	n/a	n/a	0.0	0	0	0	PAL2	0	R1028M
1893.37	0.005	986565	STOP	n/a	n/a	n/a	n/a	-999	-999	n/a	n/a	-999	14	[-999, -999, -999]	n/a	0	0	0	n/a	n/a	0.0	0	0	0	PAL2	0	R1028M
1893.375	0.0	986567	TEST_START	n/a	n/a	n/a	n/a	-999	-999	n/a	n/a	-999	14	[0, 0, 0]	n/a	0	0	0	n/a	n/a	0.0	0	0	0	PAL2	0	R1028M
1893.375	0.016	986567	MATH_END	n/a	n/a	n/a	n/a	-999	-999	n/a	n/a	-999	14	[0, 0, 0]	n/a	0	0	0	n/a	n/a	0.0	0	0	0	PAL2	0	R1028M
1893.391	0.25	986575	TEST_ORIENT	n/a	n/a	FROG	JAIL	3	1	JAIL	FROG	1	14	[0, 0, 0]	n/a	0	0	0	n/a	n/a	0.0	0	0	0	PAL2	0	R1028M
1894.375	4.0	987067	TEST_PROBE	n/a	wordpools/wordpool_EN.txt	FROG	JAIL	3	1	JAIL	FROG	1	14	[0, 0, 0]	n/a	0	0	0	n/a	n/a	0.0	0	0	0	PAL2	0	R1028M
1894.376	1.646	987068	REC_START	n/a	n/a	n/a	n/a	3	-999	n/a	FROG	1	14	[0, 0, 0]	n/a	0	0	0	n/a	n/a	0.0	0	0	0	PAL2	0	R1028M
1896.022	3.364	987891	REC_EVENT	1.646	n/a	FROG	JAIL	3	1	JAIL	FROG	1	14	[0, 0, 0]	n/a	0	0	0	n/a	n/a	0.0	0	0	0	PAL2	0	R1028M
1899.386	0.023	989573	REC_END	n/a	n/a	n/a	n/a	3	-999	n/a	n/a	-999	14	[0, 0, 0]	n/a	0	0	0	n/a	n/a	0.0	0	0	0	PAL2	0	R1028M
1899.409	0.25	989584	TEST_ORIENT	n/a	n/a	FLAME	TEETH	6	2	TEETH	FLAME	1	14	[0, 0, 0]	n/a	0	0	0	n/a	n/a	0.0	0	0	0	PAL2	0	R1028M
1900.376	4.0	990068	TEST_PROBE	n/a	wordpools/wordpool_EN.txt	FLAME	TEETH	6	2	TEETH	FLAME	1	14	[0, 0, 0]	n/a	0	0	0	n/a	n/a	0.0	0	0	0	PAL2	0	R1028M
1900.377	1.533	990068	REC_START	n/a	n/a	n/a	n/a	6	-999	n/a	FLAME	1	14	[0, 0, 0]	n/a	0	0	0	n/a	n/a	0.0	0	0	0	PAL2	0	R1028M
1901.91	3.476	990835	REC_EVENT	1.533	n/a	FLAME	TEETH	6	2	TEETH	FLAME	1	14	[0, 0, 0]	n/a	0	0	0	n/a	n/a	0.0	0	0	0	PAL2	0	R1028M
1905.386	0.007	992572	REC_END	n/a	n/a	n/a	n/a	6	-999	n/a	n/a	-999	14	[0, 0, 0]	n/a	0	0	0	n/a	n/a	0.0	0	0	0	PAL2	0	R1028M
1905.393	0.25	992576	TEST_ORIENT	n/a	n/a	BOMB	JUDGE	5	3	JUDGE	BOMB	1	14	[0, 0, 0]	n/a	0	0	0	n/a	n/a	0.0	0	0	0	PAL2	0	R1028M
1906.311	4.0	993035	TEST_PROBE	n/a	wordpools/wordpool_EN.txt	BOMB	JUDGE	5	3	JUDGE	BOMB	1	14	[0, 0, 0]	n/a	0	0	0	n/a	n/a	0.0	0	0	0	PAL2	0	R1028M
1906.312	1.6	993035	REC_START	n/a	n/a	n/a	n/a	5	-999	n/a	BOMB	1	14	[0, 0, 0]	n/a	0	0	0	n/a	n/a	0.0	0	0	0	PAL2	0	R1028M
1907.912	3.427	993835	REC_EVENT	1.6	n/a	BOMB	JUDGE	5	3	JUDGE	BOMB	1	14	[0, 0, 0]	n/a	0	0	0	n/a	n/a	0.0	0	0	0	PAL2	0	R1028M
1911.339	0.023	995549	REC_END	n/a	n/a	n/a	n/a	5	-999	n/a	n/a	-999	14	[0, 0, 0]	n/a	0	0	0	n/a	n/a	0.0	0	0	0	PAL2	0	R1028M
1911.362	0.25	995560	TEST_ORIENT	n/a	n/a	VINE	HAT	4	4	HAT	STEM	0	14	[0, 0, 0]	n/a	0	0	0	n/a	n/a	0.0	0	0	0	PAL2	0	R1028M
1912.262	0.0	996010	REC_START	n/a	n/a	n/a	n/a	4	-999	n/a	STEM	0	14	[0, 0, 0]	n/a	0	0	0	n/a	n/a	0.0	0	0	0	PAL2	0	R1028M
1912.262	4.0	996010	TEST_PROBE	n/a	wordpools/wordpool_EN.txt	VINE	HAT	4	4	HAT	STEM	0	14	[0, 0, 0]	n/a	0	0	0	n/a	n/a	0.0	0	0	0	PAL2	0	R1028M
1915.829	1.451	997793	REC_EVENT	3.567	n/a	VINE	HAT	4	4	HAT	STEM	0	14	[0, 0, 0]	n/a	0	0	0	n/a	n/a	0.0	0	0	0	PAL2	0	R1028M
1917.28	0.017	998519	REC_END	n/a	n/a	n/a	n/a	4	-999	n/a	n/a	-999	14	[0, 0, 0]	n/a	0	0	0	n/a	n/a	0.0	0	0	0	PAL2	0	R1028M
1917.297	0.25	998527	TEST_ORIENT	n/a	n/a	ROCK	CHAIR	1	5	CHAIR	ROCK	1	14	[0, 0, 0]	n/a	0	0	0	n/a	n/a	0.0	0	0	0	PAL2	0	R1028M
1918.313	4.0	999035	TEST_PROBE	n/a	wordpools/wordpool_EN.txt	ROCK	CHAIR	1	5	CHAIR	ROCK	1	14	[0, 0, 0]	n/a	0	0	0	n/a	n/a	0.0	0	0	0	PAL2	0	R1028M
1918.314	0.921	999036	REC_START	n/a	n/a	n/a	n/a	1	-999	n/a	ROCK	1	14	[0, 0, 0]	n/a	0	0	0	n/a	n/a	0.0	0	0	0	PAL2	0	R1028M
1919.235	4.079	999496	REC_EVENT	0.921	n/a	ROCK	CHAIR	1	5	CHAIR	ROCK	1	14	[0, 0, 0]	n/a	0	0	0	n/a	n/a	0.0	0	0	0	PAL2	0	R1028M
1923.314	0.017	1001535	REC_END	n/a	n/a	n/a	n/a	1	-999	n/a	n/a	-999	14	[0, 0, 0]	n/a	0	0	0	n/a	n/a	0.0	0	0	0	PAL2	0	R1028M
1923.331	0.25	1001544	TEST_ORIENT	n/a	n/a	PLANE	ARM	2	6	ARM	PLANE	1	14	[0, 0, 0]	n/a	0	0	0	n/a	n/a	0.0	0	0	0	PAL2	0	R1028M
1924.298	0.0	1002027	REC_START	n/a	n/a	n/a	n/a	2	-999	n/a	PLANE	1	14	[0, 0, 0]	n/a	0	0	0	n/a	n/a	0.0	0	0	0	PAL2	0	R1028M
1924.298	4.0	1002027	TEST_PROBE	n/a	wordpools/wordpool_EN.txt	PLANE	ARM	2	6	ARM	PLANE	1	14	[0, 0, 0]	n/a	0	0	0	n/a	n/a	0.0	0	0	0	PAL2	0	R1028M
1925.23	4.085	1002493	REC_EVENT	0.932	n/a	PLANE	ARM	2	6	ARM	PLANE	1	14	[0, 0, 0]	n/a	0	0	0	n/a	n/a	0.0	0	0	0	PAL2	0	R1028M
1929.315	7.375	1004536	REC_END	n/a	n/a	n/a	n/a	2	-999	n/a	n/a	-999	14	[0, 0, 0]	n/a	0	0	0	n/a	n/a	0.0	0	0	0	PAL2	0	R1028M
