onset	duration	sample	trial_type	response_time	stim_file	study_1	study_2	serialpos	probepos	probe_word	resp_word	correct	list	test	answer	stimulation	stim_list	stim_duration	anode_label	cathode_label	amplitude	pulse_freq	n_pulses	pulse_width	experiment	session	subject
0.0	296.041	56504	SESS_START	n/a	n/a	n/a	n/a	-999	-999	n/a	n/a	-999	-999	[0, 0, 0]	n/a	0	0	0	n/a	n/a	0.0	0	0	0	PAL2	0	R1074M
296.041	1.016	204517	START	n/a	n/a	n/a	n/a	-999	-999	n/a	n/a	-999	-1	[-999, -999, -999]	n/a	0	-999	0	n/a	n/a	0.0	0	0	0	PAL2	0	R1074M
297.057	6.503	205025	PROB	6.477	n/a	n/a	n/a	-999	-999	n/a	n/a	-999	-1	[3, 8, 1]	12	0	-999	0	n/a	n/a	0.0	0	0	0	PAL2	0	R1074M
303.56	8.6	208276	PROB	8.573	n/a	n/a	n/a	-999	-999	n/a	n/a	-999	-1	[1, 9, 7]	17	0	-999	0	n/a	n/a	0.0	0	0	0	PAL2	0	R1074M
312.16	4.782	212576	PROB	4.782	n/a	n/a	n/a	-999	-999	n/a	n/a	-999	-1	[3, 3, 5]	11	0	-999	0	n/a	n/a	0.0	0	0	0	PAL2	0	R1074M
316.942	60.247	214967	STOP	n/a	n/a	n/a	n/a	-999	-999	n/a	n/a	-999	-1	[-999, -999, -999]	n/a	0	-999	0	n/a	n/a	0.0	0	0	0	PAL2	0	R1074M
377.189	10.454	245088	ENCODING_START	n/a	n/a	n/a	n/a	0	-999	n/a	n/a	-999	1	[0, 0, 0]	n/a	0	1	0	n/a	n/a	0.0	0	0	0	PAL2	0	R1074M
387.643	0.25	250315	STUDY_ORIENT	n/a	n/a	ARK	SQUARE	1	1	SQUARE	n/a	0	1	[0, 0, 0]	n/a	0	1	0	n/a	n/a	0.0	0	0	0	PAL2	0	R1074M
388.425	4.0	250706	STUDY_PAIR	n/a	wordpools/wordpool_EN.txt	ARK	SQUARE	1	1	SQUARE	n/a	0	1	[0, 0, 0]	n/a	0	1	0	n/a	n/a	0.0	0	0	0	PAL2	0	R1074M
393.443	0.25	253215	STUDY_ORIENT	n/a	n/a	DRUM	GOAT	2	2	DRUM	DESK	0	1	[0, 0, 0]	n/a	0	1	0	n/a	n/a	0.0	0	0	0	PAL2	0	R1074M
394.393	4.0	253690	STUDY_PAIR	n/a	wordpools/wordpool_EN.txt	DRUM	GOAT	2	2	DRUM	DESK	0	1	[0, 0, 0]	n/a	0	1	0	n/a	n/a	0.0	0	0	0	PAL2	0	R1074M
399.411	0.25	256199	STUDY_ORIENT	n/a	n/a	TRAIN	FENCE	3	3	TRAIN	n/a	0	1	[0, 0, 0]	n/a	0	1	0	n/a	n/a	0.0	0	0	0	PAL2	0	R1074M
400.261	4.0	256624	STUDY_PAIR	n/a	wordpools/wordpool_EN.txt	TRAIN	FENCE	3	3	TRAIN	n/a	0	1	[0, 0, 0]	n/a	0	1	0	n/a	n/a	0.0	0	0	0	PAL2	0	R1074M
405.279	0.25	259133	STUDY_ORIENT	n/a	n/a	KITE	VEST	4	6	KITE	n/a	0	1	[0, 0, 0]	n/a	0	1	0	n/a	n/a	0.0	0	0	0	PAL2	0	R1074M
406.212	4.0	259599	STUDY_PAIR	n/a	wordpools/wordpool_EN.txt	KITE	VEST	4	6	KITE	n/a	0	1	[0, 0, 0]	n/a	0	1	0	n/a	n/a	0.0	0	0	0	PAL2	0	R1074M
411.23	0.25	262108	STUDY_ORIENT	n/a	n/a	WAVE	POND	5	5	WAVE	n/a	0	1	[0, 0, 0]	n/a	0	1	0	n/a	n/a	0.0	0	0	0	PAL2	0	R1074M
412.08	4.0	262533	STUDY_PAIR	n/a	wordpools/wordpool_EN.txt	WAVE	POND	5	5	WAVE	n/a	0	1	[0, 0, 0]	n/a	0	1	0	n/a	n/a	0.0	0	0	0	PAL2	0	R1074M
417.098	0.25	265042	STUDY_ORIENT	n/a	n/a	SKUNK	STOVE	6	4	STOVE	n/a	0	1	[0, 0, 0]	n/a	0	1	0	n/a	n/a	0.0	0	0	0	PAL2	0	R1074M
418.048	4.0	265517	STUDY_PAIR	n/a	wordpools/wordpool_EN.txt	SKUNK	STOVE	6	4	STOVE	n/a	0	1	[0, 0, 0]	n/a	0	1	0	n/a	n/a	0.0	0	0	0	PAL2	0	R1074M
422.066	0.999	267526	START	n/a	n/a	n/a	n/a	-999	-999	n/a	n/a	-999	1	[-999, -999, -999]	n/a	0	1	0	n/a	n/a	0.0	0	0	0	PAL2	0	R1074M
423.065	0.017	268025	MATH_START	n/a	n/a	n/a	n/a	-999	-999	n/a	n/a	-999	1	[0, 0, 0]	n/a	0	1	0	n/a	n/a	0.0	0	0	0	PAL2	0	R1074M
423.082	16.471	268034	PROB	16.436	n/a	n/a	n/a	-999	-999	n/a	n/a	-999	1	[5, 7, 8]	19	0	1	0	n/a	n/a	0.0	0	0	0	PAL2	0	R1074M
439.553	6.325	276269	PROB	6.325	n/a	n/a	n/a	-999	-999	n/a	n/a	-999	1	[7, 7, 3]	17	0	1	0	n/a	n/a	0.0	0	0	0	PAL2	0	R1074M
445.878	0.01	279431	STOP	n/a	n/a	n/a	n/a	-999	-999	n/a	n/a	-999	1	[-999, -999, -999]	n/a	0	1	0	n/a	n/a	0.0	0	0	0	PAL2	0	R1074M
445.888	0.0	279436	MATH_END	n/a	n/a	n/a	n/a	-999	-999	n/a	n/a	-999	1	[0, 0, 0]	n/a	0	1	0	n/a	n/a	0.0	0	0	0	PAL2	0	R1074M
445.888	0.017	279436	TEST_START	n/a	n/a	n/a	n/a	-999	-999	n/a	n/a	-999	1	[0, 0, 0]	n/a	0	1	0	n/a	n/a	0.0	0	0	0	PAL2	0	R1074M
445.905	0.25	279445	TEST_ORIENT	n/a	n/a	ARK	SQUARE	1	1	SQUARE	n/a	0	1	[0, 0, 0]	n/a	0	1	0	n/a	n/a	0.0	0	0	0	PAL2	0	R1074M
446.788	4.0	279886	TEST_PROBE	n/a	wordpools/wordpool_EN.txt	ARK	SQUARE	1	1	SQUARE	n/a	0	1	[0, 0, 0]	n/a	0	1	0	n/a	n/a	0.0	0	0	0	PAL2	0	R1074M
446.788	0.0	279886	REC_START	n/a	n/a	n/a	n/a	1	-999	n/a	n/a	0	1	[0, 0, 0]	n/a	0	1	0	n/a	n/a	0.0	0	0	0	PAL2	0	R1074M
446.788	5.017	279886	REC_EVENT	0.0	n/a	ARK	SQUARE	1	1	SQUARE	<>	0	1	[0, 0, 0]	n/a	0	1	0	n/a	n/a	0.0	0	0	0	PAL2	0	R1074M
451.805	0.017	282394	REC_END	n/a	n/a	n/a	n/a	1	-999	n/a	n/a	-999	1	[0, 0, 0]	n/a	0	1	0	n/a	n/a	0.0	0	0	0	PAL2	0	R1074M
451.822	0.25	282403	TEST_ORIENT	n/a	n/a	DRUM	GOAT	2	2	DRUM	DESK	0	1	[0, 0, 0]	n/a	0	1	0	n/a	n/a	0.0	0	0	0	PAL2	0	R1074M
452.636	4.6	282810	STIM_ON	n/a	n/a	DRUM	GOAT	2	2	DRUM	DESK	0	1	[0, 0, 0]	n/a	1	1	4600	LW1	LW2	1000.0	50	230	300	PAL2	0	R1074M
452.839	4.0	282911	TEST_PROBE	n/a	wordpools/wordpool_EN.txt	DRUM	GOAT	2	2	DRUM	DESK	0	1	[0, 0, 0]	n/a	1	1	4600	LW1	LW2	1000.0	50	230	300	PAL2	0	R1074M
452.84	3.683	282912	REC_START	n/a	n/a	n/a	n/a	2	-999	n/a	DESK	0	1	[0, 0, 0]	n/a	1	1	4600	LW1	LW2	1000.0	50	230	300	PAL2	0	R1074M
456.523	1.324	284753	REC_EVENT	3.683	n/a	DRUM	GOAT	2	2	DRUM	DESK	0	1	[0, 0, 0]	n/a	1	1	4600	LW1	LW2	1000.0	50	230	300	PAL2	0	R1074M
457.847	0.01	285415	REC_END	n/a	n/a	n/a	n/a	2	-999	n/a	n/a	-999	1	[0, 0, 0]	n/a	0	1	0	n/a	n/a	0.0	0	0	0	PAL2	0	R1074M
457.857	0.25	285420	TEST_ORIENT	n/a	n/a	TRAIN	FENCE	3	3	TRAIN	n/a	0	1	[0, 0, 0]	n/a	0	1	0	n/a	n/a	0.0	0	0	0	PAL2	0	R1074M
458.89	4.0	285937	TEST_PROBE	n/a	wordpools/wordpool_EN.txt	TRAIN	FENCE	3	3	TRAIN	n/a	0	1	[0, 0, 0]	n/a	0	1	0	n/a	n/a	0.0	0	0	0	PAL2	0	R1074M
458.891	0.0	285937	REC_START	n/a	n/a	n/a	n/a	3	-999	n/a	n/a	0	1	[0, 0, 0]	n/a	0	1	0	n/a	n/a	0.0	0	0	0	PAL2	0	R1074M
458.891	5.007	285937	REC_EVENT	0.0	n/a	TRAIN	FENCE	3	3	TRAIN	<>	0	1	[0, 0, 0]	n/a	0	1	0	n/a	n/a	0.0	0	0	0	PAL2	0	R1074M
463.898	0.01	288441	REC_END	n/a	n/a	n/a	n/a	3	-999	n/a	n/a	-999	1	[0, 0, 0]	n/a	0	1	0	n/a	n/a	0.0	0	0	0	PAL2	0	R1074M
463.908	0.25	288446	TEST_ORIENT	n/a	n/a	SKUNK	STOVE	6	4	STOVE	n/a	0	1	[0, 0, 0]	n/a	0	1	0	n/a	n/a	0.0	0	0	0	PAL2	0	R1074M
464.584	4.6	288784	STIM_ON	n/a	n/a	SKUNK	STOVE	6	4	STOVE	n/a	0	1	[0, 0, 0]	n/a	1	1	4600	LW1	LW2	1000.0	50	230	300	PAL2	0	R1074M
464.792	4.0	288888	TEST_PROBE	n/a	wordpools/wordpool_EN.txt	SKUNK	STOVE	6	4	STOVE	n/a	0	1	[0, 0, 0]	n/a	1	1	4600	LW1	LW2	1000.0	50	230	300	PAL2	0	R1074M
464.792	0.0	288888	REC_START	n/a	n/a	n/a	n/a	6	-999	n/a	n/a	0	1	[0, 0, 0]	n/a	1	1	4600	LW1	LW2	1000.0	50	230	300	PAL2	0	R1074M
464.792	5.017	288888	REC_EVENT	0.0	n/a	SKUNK	STOVE	6	4	STOVE	<>	0	1	[0, 0, 0]	n/a	1	1	4600	LW1	LW2	1000.0	50	230	300	PAL2	0	R1074M
469.809	0.017	291396	REC_END	n/a	n/a	n/a	n/a	6	-999	n/a	n/a	-999	1	[0, 0, 0]	n/a	0	1	0	n/a	n/a	0.0	0	0	0	PAL2	0	R1074M
469.826	0.25	291404	TEST_ORIENT	n/a	n/a	WAVE	POND	5	5	WAVE	n/a	0	1	[0, 0, 0]	n/a	0	1	0	n/a	n/a	0.0	0	0	0	PAL2	0	R1074M
470.759	4.0	291871	TEST_PROBE	n/a	wordpools/wordpool_EN.txt	WAVE	POND	5	5	WAVE	n/a	0	1	[0, 0, 0]	n/a	0	1	0	n/a	n/a	0.0	0	0	0	PAL2	0	R1074M
470.76	0.0	291871	REC_START	n/a	n/a	n/a	n/a	5	-999	n/a	n/a	0	1	[0, 0, 0]	n/a	0	1	0	n/a	n/a	0.0	0	0	0	PAL2	0	R1074M
470.76	5.0	291871	REC_EVENT	0.0	n/a	WAVE	POND	5	5	WAVE	<>	0	1	[0, 0, 0]	n/a	0	1	0	n/a	n/a	0.0	0	0	0	PAL2	0	R1074M
475.76	0.017	294371	REC_END	n/a	n/a	n/a	n/a	5	-999	n/a	n/a	-999	1	[0, 0, 0]	n/a	0	1	0	n/a	n/a	0.0	0	0	0	PAL2	0	R1074M
475.777	0.25	294380	TEST_ORIENT	n/a	n/a	KITE	VEST	4	6	KITE	n/a	0	1	[0, 0, 0]	n/a	0	1	0	n/a	n/a	0.0	0	0	0	PAL2	0	R1074M
476.575	4.6	294779	STIM_ON	n/a	n/a	KITE	VEST	4	6	KITE	n/a	0	1	[0, 0, 0]	n/a	1	1	4600	LW1	LW2	1000.0	50	230	300	PAL2	0	R1074M
476.777	4.0	294880	TEST_PROBE	n/a	wordpools/wordpool_EN.txt	KITE	VEST	4	6	KITE	n/a	0	1	[0, 0, 0]	n/a	1	1	4600	LW1	LW2	1000.0	50	230	300	PAL2	0	R1074M
476.778	0.0	294880	REC_START	n/a	n/a	n/a	n/a	4	-999	n/a	n/a	0	1	[0, 0, 0]	n/a	1	1	4600	LW1	LW2	1000.0	50	230	300	PAL2	0	R1074M
476.778	5.007	294880	REC_EVENT	0.0	n/a	KITE	VEST	4	6	KITE	<>	0	1	[0, 0, 0]	n/a	1	1	4600	LW1	LW2	1000.0	50	230	300	PAL2	0	R1074M
481.785	11.404	297384	REC_END	n/a	n/a	n/a	n/a	4	-999	n/a	n/a	-999	1	[0, 0, 0]	n/a	0	1	0	n/a	n/a	0.0	0	0	0	PAL2	0	R1074M
493.189	10.444	303085	ENCODING_START	n/a	n/a	n/a	n/a	0	-999	n/a	n/a	-999	2	[0, 0, 0]	n/a	0	0	0	n/a	n/a	0.0	0	0	0	PAL2	0	R1074M
503.633	0.25	308307	STUDY_ORIENT	n/a	n/a	RAKE	CUBE	1	1	RAKE	n/a	0	2	[0, 0, 0]	n/a	0	0	0	n/a	n/a	0.0	0	0	0	PAL2	0	R1074M
504.633	4.0	308807	STUDY_PAIR	n/a	wordpools/wordpool_EN.txt	RAKE	CUBE	1	1	RAKE	n/a	0	2	[0, 0, 0]	n/a	0	0	0	n/a	n/a	0.0	0	0	0	PAL2	0	R1074M
509.667	0.25	311324	STUDY_ORIENT	n/a	n/a	CHIN	CONE	2	6	CONE	n/a	0	2	[0, 0, 0]	n/a	0	0	0	n/a	n/a	0.0	0	0	0	PAL2	0	R1074M
510.584	4.0	311782	STUDY_PAIR	n/a	wordpools/wordpool_EN.txt	CHIN	CONE	2	6	CONE	n/a	0	2	[0, 0, 0]	n/a	0	0	0	n/a	n/a	0.0	0	0	0	PAL2	0	R1074M
515.618	0.25	314299	STUDY_ORIENT	n/a	n/a	FOOD	LOCK	3	3	LOCK	n/a	0	2	[0, 0, 0]	n/a	0	0	0	n/a	n/a	0.0	0	0	0	PAL2	0	R1074M
516.602	4.0	314791	STUDY_PAIR	n/a	wordpools/wordpool_EN.txt	FOOD	LOCK	3	3	LOCK	n/a	0	2	[0, 0, 0]	n/a	0	0	0	n/a	n/a	0.0	0	0	0	PAL2	0	R1074M
521.636	0.25	317308	STUDY_ORIENT	n/a	n/a	SMILE	TOY	4	2	TOY	n/a	0	2	[0, 0, 0]	n/a	0	0	0	n/a	n/a	0.0	0	0	0	PAL2	0	R1074M
522.586	4.0	317783	STUDY_PAIR	n/a	wordpools/wordpool_EN.txt	SMILE	TOY	4	2	TOY	n/a	0	2	[0, 0, 0]	n/a	0	0	0	n/a	n/a	0.0	0	0	0	PAL2	0	R1074M
527.604	0.25	320292	STUDY_ORIENT	n/a	n/a	CAKE	HOLE	5	5	HOLE	n/a	0	2	[0, 0, 0]	n/a	0	0	0	n/a	n/a	0.0	0	0	0	PAL2	0	R1074M
528.387	4.0	320683	STUDY_PAIR	n/a	wordpools/wordpool_EN.txt	CAKE	HOLE	5	5	HOLE	n/a	0	2	[0, 0, 0]	n/a	0	0	0	n/a	n/a	0.0	0	0	0	PAL2	0	R1074M
533.421	0.25	323200	STUDY_ORIENT	n/a	n/a	TEETH	FOOT	6	4	TEETH	n/a	0	2	[0, 0, 0]	n/a	0	0	0	n/a	n/a	0.0	0	0	0	PAL2	0	R1074M
534.271	4.0	323625	STUDY_PAIR	n/a	wordpools/wordpool_EN.txt	TEETH	FOOT	6	4	TEETH	n/a	0	2	[0, 0, 0]	n/a	0	0	0	n/a	n/a	0.0	0	0	0	PAL2	0	R1074M
538.272	1.0	325626	START	n/a	n/a	n/a	n/a	-999	-999	n/a	n/a	-999	2	[-999, -999, -999]	n/a	0	0	0	n/a	n/a	0.0	0	0	0	PAL2	0	R1074M
539.272	0.017	326125	MATH_START	n/a	n/a	n/a	n/a	-999	-999	n/a	n/a	-999	2	[0, 0, 0]	n/a	0	0	0	n/a	n/a	0.0	0	0	0	PAL2	0	R1074M
539.289	6.984	326134	PROB	6.956	n/a	n/a	n/a	-999	-999	n/a	n/a	-999	2	[7, 2, 3]	12	0	0	0	n/a	n/a	0.0	0	0	0	PAL2	0	R1074M
546.273	6.503	329626	PROB	6.469	n/a	n/a	n/a	-999	-999	n/a	n/a	-999	2	[2, 6, 1]	9	0	0	0	n/a	n/a	0.0	0	0	0	PAL2	0	R1074M
552.776	5.758	332877	PROB	5.758	n/a	n/a	n/a	-999	-999	n/a	n/a	-999	2	[2, 1, 3]	6	0	0	0	n/a	n/a	0.0	0	0	0	PAL2	0	R1074M
558.534	0.01	335756	STOP	n/a	n/a	n/a	n/a	-999	-999	n/a	n/a	-999	2	[-999, -999, -999]	n/a	0	0	0	n/a	n/a	0.0	0	0	0	PAL2	0	R1074M
558.544	0.0	335761	MATH_END	n/a	n/a	n/a	n/a	-999	-999	n/a	n/a	-999	2	[0, 0, 0]	n/a	0	0	0	n/a	n/a	0.0	0	0	0	PAL2	0	R1074M
558.544	0.016	335761	TEST_START	n/a	n/a	n/a	n/a	-999	-999	n/a	n/a	-999	2	[0, 0, 0]	n/a	0	0	0	n/a	n/a	0.0	0	0	0	PAL2	0	R1074M
558.56	0.25	335769	TEST_ORIENT	n/a	n/a	RAKE	CUBE	1	1	RAKE	n/a	0	2	[0, 0, 0]	n/a	0	0	0	n/a	n/a	0.0	0	0	0	PAL2	0	R1074M
559.476	4.0	336227	TEST_PROBE	n/a	wordpools/wordpool_EN.txt	RAKE	CUBE	1	1	RAKE	n/a	0	2	[0, 0, 0]	n/a	0	0	0	n/a	n/a	0.0	0	0	0	PAL2	0	R1074M
559.477	0.0	336227	REC_START	n/a	n/a	n/a	n/a	1	-999	n/a	n/a	0	2	[0, 0, 0]	n/a	0	0	0	n/a	n/a	0.0	0	0	0	PAL2	0	R1074M
559.477	5.024	336227	REC_EVENT	0.0	n/a	RAKE	CUBE	1	1	RAKE	<>	0	2	[0, 0, 0]	n/a	0	0	0	n/a	n/a	0.0	0	0	0	PAL2	0	R1074M
564.501	0.01	338739	REC_END	n/a	n/a	n/a	n/a	1	-999	n/a	n/a	-999	2	[0, 0, 0]	n/a	0	0	0	n/a	n/a	0.0	0	0	0	PAL2	0	R1074M
564.511	0.25	338744	TEST_ORIENT	n/a	n/a	SMILE	TOY	4	2	TOY	n/a	0	2	[0, 0, 0]	n/a	0	0	0	n/a	n/a	0.0	0	0	0	PAL2	0	R1074M
565.545	4.0	339261	TEST_PROBE	n/a	wordpools/wordpool_EN.txt	SMILE	TOY	4	2	TOY	n/a	0	2	[0, 0, 0]	n/a	0	0	0	n/a	n/a	0.0	0	0	0	PAL2	0	R1074M
565.546	0.0	339262	REC_EVENT	0.0	n/a	SMILE	TOY	4	2	TOY	<>	0	2	[0, 0, 0]	n/a	0	0	0	n/a	n/a	0.0	0	0	0	PAL2	0	R1074M
565.546	5.016	339262	REC_START	n/a	n/a	n/a	n/a	4	-999	n/a	n/a	0	2	[0, 0, 0]	n/a	0	0	0	n/a	n/a	0.0	0	0	0	PAL2	0	R1074M
570.562	0.017	341770	REC_END	n/a	n/a	n/a	n/a	4	-999	n/a	n/a	-999	2	[0, 0, 0]	n/a	0	0	0	n/a	n/a	0.0	0	0	0	PAL2	0	R1074M
570.579	0.25	341778	TEST_ORIENT	n/a	n/a	FOOD	LOCK	3	3	LOCK	n/a	0	2	[0, 0, 0]	n/a	0	0	0	n/a	n/a	0.0	0	0	0	PAL2	0	R1074M
571.429	4.0	342203	TEST_PROBE	n/a	wordpools/wordpool_EN.txt	FOOD	LOCK	3	3	LOCK	n/a	0	2	[0, 0, 0]	n/a	0	0	0	n/a	n/a	0.0	0	0	0	PAL2	0	R1074M
571.429	0.0	342203	REC_START	n/a	n/a	n/a	n/a	3	-999	n/a	n/a	0	2	[0, 0, 0]	n/a	0	0	0	n/a	n/a	0.0	0	0	0	PAL2	0	R1074M
571.429	5.017	342203	REC_EVENT	0.0	n/a	FOOD	LOCK	3	3	LOCK	<>	0	2	[0, 0, 0]	n/a	0	0	0	n/a	n/a	0.0	0	0	0	PAL2	0	R1074M
576.446	0.017	344711	REC_END	n/a	n/a	n/a	n/a	3	-999	n/a	n/a	-999	2	[0, 0, 0]	n/a	0	0	0	n/a	n/a	0.0	0	0	0	PAL2	0	R1074M
576.463	0.25	344720	TEST_ORIENT	n/a	n/a	TEETH	FOOT	6	4	TEETH	n/a	0	2	[0, 0, 0]	n/a	0	0	0	n/a	n/a	0.0	0	0	0	PAL2	0	R1074M
577.463	4.0	345220	TEST_PROBE	n/a	wordpools/wordpool_EN.txt	TEETH	FOOT	6	4	TEETH	n/a	0	2	[0, 0, 0]	n/a	0	0	0	n/a	n/a	0.0	0	0	0	PAL2	0	R1074M
577.463	3.743	345220	REC_START	n/a	n/a	n/a	n/a	6	-999	n/a	n/a	0	2	[0, 0, 0]	n/a	0	0	0	n/a	n/a	0.0	0	0	0	PAL2	0	R1074M
581.206	1.282	347091	REC_EVENT	3.743	n/a	TEETH	FOOT	6	4	TEETH	<>	0	2	[0, 0, 0]	n/a	0	0	0	n/a	n/a	0.0	0	0	0	PAL2	0	R1074M
582.488	0.009	347732	REC_END	n/a	n/a	n/a	n/a	6	-999	n/a	n/a	-999	2	[0, 0, 0]	n/a	0	0	0	n/a	n/a	0.0	0	0	0	PAL2	0	R1074M
582.497	0.25	347737	TEST_ORIENT	n/a	n/a	CAKE	HOLE	5	5	HOLE	n/a	0	2	[0, 0, 0]	n/a	0	0	0	n/a	n/a	0.0	0	0	0	PAL2	0	R1074M
583.314	0.0	348145	REC_START	n/a	n/a	n/a	n/a	5	-999	n/a	n/a	0	2	[0, 0, 0]	n/a	0	0	0	n/a	n/a	0.0	0	0	0	PAL2	0	R1074M
583.314	0.0	348145	REC_EVENT	0.0	n/a	CAKE	HOLE	5	5	HOLE	<>	0	2	[0, 0, 0]	n/a	0	0	0	n/a	n/a	0.0	0	0	0	PAL2	0	R1074M
583.314	4.0	348145	TEST_PROBE	n/a	wordpools/wordpool_EN.txt	CAKE	HOLE	5	5	HOLE	n/a	0	2	[0, 0, 0]	n/a	0	0	0	n/a	n/a	0.0	0	0	0	PAL2	0	R1074M
588.332	0.017	350654	REC_END	n/a	n/a	n/a	n/a	5	-999	n/a	n/a	-999	2	[0, 0, 0]	n/a	0	0	0	n/a	n/a	0.0	0	0	0	PAL2	0	R1074M
588.349	0.25	350663	TEST_ORIENT	n/a	n/a	CHIN	CONE	2	6	CONE	n/a	0	2	[0, 0, 0]	n/a	0	0	0	n/a	n/a	0.0	0	0	0	PAL2	0	R1074M
589.265	4.0	351121	TEST_PROBE	n/a	wordpools/wordpool_EN.txt	CHIN	CONE	2	6	CONE	n/a	0	2	[0, 0, 0]	n/a	0	0	0	n/a	n/a	0.0	0	0	0	PAL2	0	R1074M
589.266	0.0	351121	REC_START	n/a	n/a	n/a	n/a	2	-999	n/a	n/a	0	2	[0, 0, 0]	n/a	0	0	0	n/a	n/a	0.0	0	0	0	PAL2	0	R1074M
589.266	5.007	351121	REC_EVENT	0.0	n/a	CHIN	CONE	2	6	CONE	<>	0	2	[0, 0, 0]	n/a	0	0	0	n/a	n/a	0.0	0	0	0	PAL2	0	R1074M
594.273	25.876	353624	REC_END	n/a	n/a	n/a	n/a	2	-999	n/a	n/a	-999	2	[0, 0, 0]	n/a	0	0	0	n/a	n/a	0.0	0	0	0	PAL2	0	R1074M
620.149	10.442	366562	ENCODING_START	n/a	n/a	n/a	n/a	0	-999	n/a	n/a	-999	3	[0, 0, 0]	n/a	0	1	0	n/a	n/a	0.0	0	0	0	PAL2	0	R1074M
630.591	0.25	371782	STUDY_ORIENT	n/a	n/a	FILM	CUP	1	1	FILM	n/a	0	3	[0, 0, 0]	n/a	0	1	0	n/a	n/a	0.0	0	0	0	PAL2	0	R1074M
631.49	4.0	372232	STUDY_PAIR	n/a	wordpools/wordpool_EN.txt	FILM	CUP	1	1	FILM	n/a	0	3	[0, 0, 0]	n/a	0	1	0	n/a	n/a	0.0	0	0	0	PAL2	0	R1074M
636.509	0.25	374741	STUDY_ORIENT	n/a	n/a	DEER	MOLE	2	4	DEER	n/a	0	3	[0, 0, 0]	n/a	0	1	0	n/a	n/a	0.0	0	0	0	PAL2	0	R1074M
637.375	4.0	375174	STUDY_PAIR	n/a	wordpools/wordpool_EN.txt	DEER	MOLE	2	4	DEER	n/a	0	3	[0, 0, 0]	n/a	0	1	0	n/a	n/a	0.0	0	0	0	PAL2	0	R1074M
642.409	0.25	377691	STUDY_ORIENT	n/a	n/a	MAIL	WING	3	3	MAIL	n/a	0	3	[0, 0, 0]	n/a	0	1	0	n/a	n/a	0.0	0	0	0	PAL2	0	R1074M
643.36	4.0	378167	STUDY_PAIR	n/a	wordpools/wordpool_EN.txt	MAIL	WING	3	3	MAIL	n/a	0	3	[0, 0, 0]	n/a	0	1	0	n/a	n/a	0.0	0	0	0	PAL2	0	R1074M
648.394	0.25	380684	STUDY_ORIENT	n/a	n/a	LAND	HEN	4	2	HEN	n/a	0	3	[0, 0, 0]	n/a	0	1	0	n/a	n/a	0.0	0	0	0	PAL2	0	R1074M
649.211	4.0	381092	STUDY_PAIR	n/a	wordpools/wordpool_EN.txt	LAND	HEN	4	2	HEN	n/a	0	3	[0, 0, 0]	n/a	0	1	0	n/a	n/a	0.0	0	0	0	PAL2	0	R1074M
654.245	0.25	383609	STUDY_ORIENT	n/a	n/a	DOG	WORM	5	5	WORM	n/a	0	3	[0, 0, 0]	n/a	0	1	0	n/a	n/a	0.0	0	0	0	PAL2	0	R1074M
655.129	4.0	384051	STUDY_PAIR	n/a	wordpools/wordpool_EN.txt	DOG	WORM	5	5	WORM	n/a	0	3	[0, 0, 0]	n/a	0	1	0	n/a	n/a	0.0	0	0	0	PAL2	0	R1074M
660.163	0.25	386568	STUDY_ORIENT	n/a	n/a	BROOM	STAR	6	6	BROOM	n/a	0	3	[0, 0, 0]	n/a	0	1	0	n/a	n/a	0.0	0	0	0	PAL2	0	R1074M
660.947	4.0	386960	STUDY_PAIR	n/a	wordpools/wordpool_EN.txt	BROOM	STAR	6	6	BROOM	n/a	0	3	[0, 0, 0]	n/a	0	1	0	n/a	n/a	0.0	0	0	0	PAL2	0	R1074M
664.948	1.0	388960	START	n/a	n/a	n/a	n/a	-999	-999	n/a	n/a	-999	3	[-999, -999, -999]	n/a	0	1	0	n/a	n/a	0.0	0	0	0	PAL2	0	R1074M
665.948	0.017	389460	MATH_START	n/a	n/a	n/a	n/a	-999	-999	n/a	n/a	-999	3	[0, 0, 0]	n/a	0	1	0	n/a	n/a	0.0	0	0	0	PAL2	0	R1074M
665.965	5.533	389469	PROB	5.512	n/a	n/a	n/a	-999	-999	n/a	n/a	-999	3	[4, 2, 6]	12	0	1	0	n/a	n/a	0.0	0	0	0	PAL2	0	R1074M
671.498	6.585	392235	PROB	6.563	n/a	n/a	n/a	-999	-999	n/a	n/a	-999	3	[6, 2, 7]	15	0	1	0	n/a	n/a	0.0	0	0	0	PAL2	0	R1074M
678.083	6.619	395527	PROB	6.587	n/a	n/a	n/a	-999	-999	n/a	n/a	-999	3	[4, 1, 7]	12	0	1	0	n/a	n/a	0.0	0	0	0	PAL2	0	R1074M
684.702	6.719	398837	PROB	6.719	n/a	n/a	n/a	-999	-999	n/a	n/a	-999	3	[3, 5, 7]	15	0	1	0	n/a	n/a	0.0	0	0	0	PAL2	0	R1074M
691.421	0.015	402196	STOP	n/a	n/a	n/a	n/a	-999	-999	n/a	n/a	-999	3	[-999, -999, -999]	n/a	0	1	0	n/a	n/a	0.0	0	0	0	PAL2	0	R1074M
691.436	0.0	402203	MATH_END	n/a	n/a	n/a	n/a	-999	-999	n/a	n/a	-999	3	[0, 0, 0]	n/a	0	1	0	n/a	n/a	0.0	0	0	0	PAL2	0	R1074M
691.436	0.016	402203	TEST_START	n/a	n/a	n/a	n/a	-999	-999	n/a	n/a	-999	3	[0, 0, 0]	n/a	0	1	0	n/a	n/a	0.0	0	0	0	PAL2	0	R1074M
691.452	0.25	402211	TEST_ORIENT	n/a	n/a	FILM	CUP	1	1	FILM	n/a	0	3	[0, 0, 0]	n/a	0	1	0	n/a	n/a	0.0	0	0	0	PAL2	0	R1074M
692.115	4.6	402543	STIM_ON	n/a	n/a	FILM	CUP	1	1	FILM	n/a	0	3	[0, 0, 0]	n/a	1	1	4600	LW1	LW2	1000.0	50	230	300	PAL2	0	R1074M
692.319	4.0	402645	TEST_PROBE	n/a	wordpools/wordpool_EN.txt	FILM	CUP	1	1	FILM	n/a	0	3	[0, 0, 0]	n/a	1	1	4600	LW1	LW2	1000.0	50	230	300	PAL2	0	R1074M
692.32	0.0	402645	REC_START	n/a	n/a	n/a	n/a	1	-999	n/a	n/a	0	3	[0, 0, 0]	n/a	1	1	4600	LW1	LW2	1000.0	50	230	300	PAL2	0	R1074M
692.32	5.016	402645	REC_EVENT	0.0	n/a	FILM	CUP	1	1	FILM	<>	0	3	[0, 0, 0]	n/a	1	1	4600	LW1	LW2	1000.0	50	230	300	PAL2	0	R1074M
697.336	0.018	405153	REC_END	n/a	n/a	n/a	n/a	1	-999	n/a	n/a	-999	3	[0, 0, 0]	n/a	0	1	0	n/a	n/a	0.0	0	0	0	PAL2	0	R1074M
697.354	0.25	405162	TEST_ORIENT	n/a	n/a	LAND	HEN	4	2	HEN	n/a	0	3	[0, 0, 0]	n/a	0	1	0	n/a	n/a	0.0	0	0	0	PAL2	0	R1074M
698.237	4.0	405604	TEST_PROBE	n/a	wordpools/wordpool_EN.txt	LAND	HEN	4	2	HEN	n/a	0	3	[0, 0, 0]	n/a	0	1	0	n/a	n/a	0.0	0	0	0	PAL2	0	R1074M
698.238	0.0	405604	REC_START	n/a	n/a	n/a	n/a	4	-999	n/a	n/a	0	3	[0, 0, 0]	n/a	0	1	0	n/a	n/a	0.0	0	0	0	PAL2	0	R1074M
698.238	5.016	405604	REC_EVENT	0.0	n/a	LAND	HEN	4	2	HEN	<>	0	3	[0, 0, 0]	n/a	0	1	0	n/a	n/a	0.0	0	0	0	PAL2	0	R1074M
703.254	0.018	408112	REC_END	n/a	n/a	n/a	n/a	4	-999	n/a	n/a	-999	3	[0, 0, 0]	n/a	0	1	0	n/a	n/a	0.0	0	0	0	PAL2	0	R1074M
703.272	0.25	408121	TEST_ORIENT	n/a	n/a	MAIL	WING	3	3	MAIL	n/a	0	3	[0, 0, 0]	n/a	0	1	0	n/a	n/a	0.0	0	0	0	PAL2	0	R1074M
704.071	4.6	408520	STIM_ON	n/a	n/a	MAIL	WING	3	3	MAIL	n/a	0	3	[0, 0, 0]	n/a	1	1	4600	LW1	LW2	1000.0	50	230	300	PAL2	0	R1074M
704.288	4.0	408629	TEST_PROBE	n/a	wordpools/wordpool_EN.txt	MAIL	WING	3	3	MAIL	n/a	0	3	[0, 0, 0]	n/a	1	1	4600	LW1	LW2	1000.0	50	230	300	PAL2	0	R1074M
704.289	0.0	408629	REC_START	n/a	n/a	n/a	n/a	3	-999	n/a	n/a	0	3	[0, 0, 0]	n/a	1	1	4600	LW1	LW2	1000.0	50	230	300	PAL2	0	R1074M
704.289	5.007	408629	REC_EVENT	0.0	n/a	MAIL	WING	3	3	MAIL	<>	0	3	[0, 0, 0]	n/a	1	1	4600	LW1	LW2	1000.0	50	230	300	PAL2	0	R1074M
709.296	0.01	411133	REC_END	n/a	n/a	n/a	n/a	3	-999	n/a	n/a	-999	3	[0, 0, 0]	n/a	0	1	0	n/a	n/a	0.0	0	0	0	PAL2	0	R1074M
709.306	0.25	411138	TEST_ORIENT	n/a	n/a	DEER	MOLE	2	4	DEER	n/a	0	3	[0, 0, 0]	n/a	0	1	0	n/a	n/a	0.0	0	0	0	PAL2	0	R1074M
710.273	4.0	411621	TEST_PROBE	n/a	wordpools/wordpool_EN.txt	DEER	MOLE	2	4	DEER	n/a	0	3	[0, 0, 0]	n/a	0	1	0	n/a	n/a	0.0	0	0	0	PAL2	0	R1074M
710.274	1.3	411622	REC_START	n/a	n/a	n/a	n/a	2	-999	n/a	n/a	0	3	[0, 0, 0]	n/a	0	1	0	n/a	n/a	0.0	0	0	0	PAL2	0	R1074M
711.574	3.716	412272	REC_EVENT	1.3	n/a	DEER	MOLE	2	4	DEER	<>	0	3	[0, 0, 0]	n/a	0	1	0	n/a	n/a	0.0	0	0	0	PAL2	0	R1074M
715.29	0.017	414130	REC_END	n/a	n/a	n/a	n/a	2	-999	n/a	n/a	-999	3	[0, 0, 0]	n/a	0	1	0	n/a	n/a	0.0	0	0	0	PAL2	0	R1074M
715.307	0.25	414138	TEST_ORIENT	n/a	n/a	DOG	WORM	5	5	WORM	n/a	0	3	[0, 0, 0]	n/a	0	1	0	n/a	n/a	0.0	0	0	0	PAL2	0	R1074M
715.936	4.6	414453	STIM_ON	n/a	n/a	DOG	WORM	5	5	WORM	n/a	0	3	[0, 0, 0]	n/a	1	1	4600	LW1	LW2	1000.0	50	230	300	PAL2	0	R1074M
716.141	4.0	414555	TEST_PROBE	n/a	wordpools/wordpool_EN.txt	DOG	WORM	5	5	WORM	n/a	0	3	[0, 0, 0]	n/a	1	1	4600	LW1	LW2	1000.0	50	230	300	PAL2	0	R1074M
716.142	0.0	414556	REC_START	n/a	n/a	n/a	n/a	5	-999	n/a	n/a	0	3	[0, 0, 0]	n/a	1	1	4600	LW1	LW2	1000.0	50	230	300	PAL2	0	R1074M
716.142	5.023	414556	REC_EVENT	0.0	n/a	DOG	WORM	5	5	WORM	<>	0	3	[0, 0, 0]	n/a	1	1	4600	LW1	LW2	1000.0	50	230	300	PAL2	0	R1074M
721.165	0.01	417067	REC_END	n/a	n/a	n/a	n/a	5	-999	n/a	n/a	-999	3	[0, 0, 0]	n/a	0	1	0	n/a	n/a	0.0	0	0	0	PAL2	0	R1074M
721.175	0.25	417072	TEST_ORIENT	n/a	n/a	BROOM	STAR	6	6	BROOM	n/a	0	3	[0, 0, 0]	n/a	0	1	0	n/a	n/a	0.0	0	0	0	PAL2	0	R1074M
721.976	4.0	417472	TEST_PROBE	n/a	wordpools/wordpool_EN.txt	BROOM	STAR	6	6	BROOM	n/a	0	3	[0, 0, 0]	n/a	0	1	0	n/a	n/a	0.0	0	0	0	PAL2	0	R1074M
721.977	0.0	417473	REC_START	n/a	n/a	n/a	n/a	6	-999	n/a	n/a	0	3	[0, 0, 0]	n/a	0	1	0	n/a	n/a	0.0	0	0	0	PAL2	0	R1074M
721.977	5.007	417473	REC_EVENT	0.0	n/a	BROOM	STAR	6	6	BROOM	<>	0	3	[0, 0, 0]	n/a	0	1	0	n/a	n/a	0.0	0	0	0	PAL2	0	R1074M
726.984	13.79	419976	REC_END	n/a	n/a	n/a	n/a	6	-999	n/a	n/a	-999	3	[0, 0, 0]	n/a	0	1	0	n/a	n/a	0.0	0	0	0	PAL2	0	R1074M
740.774	10.44	426871	ENCODING_START	n/a	n/a	n/a	n/a	0	-999	n/a	n/a	-999	4	[0, 0, 0]	n/a	0	0	0	n/a	n/a	0.0	0	0	0	PAL2	0	R1074M
751.214	0.25	432091	STUDY_ORIENT	n/a	n/a	THUMB	ROPE	1	1	ROPE	n/a	0	4	[0, 0, 0]	n/a	0	0	0	n/a	n/a	0.0	0	0	0	PAL2	0	R1074M
752.148	4.0	432558	STUDY_PAIR	n/a	wordpools/wordpool_EN.txt	THUMB	ROPE	1	1	ROPE	n/a	0	4	[0, 0, 0]	n/a	0	0	0	n/a	n/a	0.0	0	0	0	PAL2	0	R1074M
757.182	0.25	435075	STUDY_ORIENT	n/a	n/a	CLAY	OAR	2	4	OAR	n/a	0	4	[0, 0, 0]	n/a	0	0	0	n/a	n/a	0.0	0	0	0	PAL2	0	R1074M
758.182	4.0	435574	STUDY_PAIR	n/a	wordpools/wordpool_EN.txt	CLAY	OAR	2	4	OAR	n/a	0	4	[0, 0, 0]	n/a	0	0	0	n/a	n/a	0.0	0	0	0	PAL2	0	R1074M
763.2	0.25	438083	STUDY_ORIENT	n/a	n/a	COUCH	SPRING	3	3	COUCH	SPRING	1	4	[0, 0, 0]	n/a	0	0	0	n/a	n/a	0.0	0	0	0	PAL2	0	R1074M
764.034	4.0	438500	STUDY_PAIR	n/a	wordpools/wordpool_EN.txt	COUCH	SPRING	3	3	COUCH	SPRING	1	4	[0, 0, 0]	n/a	0	0	0	n/a	n/a	0.0	0	0	0	PAL2	0	R1074M
769.068	0.25	441017	STUDY_ORIENT	n/a	n/a	SOUP	BEACH	4	6	SOUP	n/a	0	4	[0, 0, 0]	n/a	0	0	0	n/a	n/a	0.0	0	0	0	PAL2	0	R1074M
769.902	4.0	441434	STUDY_PAIR	n/a	wordpools/wordpool_EN.txt	SOUP	BEACH	4	6	SOUP	n/a	0	4	[0, 0, 0]	n/a	0	0	0	n/a	n/a	0.0	0	0	0	PAL2	0	R1074M
774.92	0.25	443943	STUDY_ORIENT	n/a	n/a	CROWN	CHIEF	5	5	CHIEF	n/a	0	4	[0, 0, 0]	n/a	0	0	0	n/a	n/a	0.0	0	0	0	PAL2	0	R1074M
775.704	4.0	444335	STUDY_PAIR	n/a	wordpools/wordpool_EN.txt	CROWN	CHIEF	5	5	CHIEF	n/a	0	4	[0, 0, 0]	n/a	0	0	0	n/a	n/a	0.0	0	0	0	PAL2	0	R1074M
780.738	0.25	446852	STUDY_ORIENT	n/a	n/a	WHALE	NET	6	2	WHALE	n/a	0	4	[0, 0, 0]	n/a	0	0	0	n/a	n/a	0.0	0	0	0	PAL2	0	R1074M
781.688	4.0	447327	STUDY_PAIR	n/a	wordpools/wordpool_EN.txt	WHALE	NET	6	2	WHALE	n/a	0	4	[0, 0, 0]	n/a	0	0	0	n/a	n/a	0.0	0	0	0	PAL2	0	R1074M
785.689	1.0	449327	START	n/a	n/a	n/a	n/a	-999	-999	n/a	n/a	-999	4	[-999, -999, -999]	n/a	0	0	0	n/a	n/a	0.0	0	0	0	PAL2	0	R1074M
786.689	0.017	449827	MATH_START	n/a	n/a	n/a	n/a	-999	-999	n/a	n/a	-999	4	[0, 0, 0]	n/a	0	0	0	n/a	n/a	0.0	0	0	0	PAL2	0	R1074M
786.706	9.902	449836	PROB	9.868	n/a	n/a	n/a	-999	-999	n/a	n/a	-999	4	[8, 3, 5]	16	0	0	0	n/a	n/a	0.0	0	0	0	PAL2	0	R1074M
796.608	6.401	454786	PROB	6.382	n/a	n/a	n/a	-999	-999	n/a	n/a	-999	4	[9, 1, 3]	13	0	0	0	n/a	n/a	0.0	0	0	0	PAL2	0	R1074M
803.009	8.468	457987	PROB	8.468	n/a	n/a	n/a	-999	-999	n/a	n/a	-999	4	[8, 7, 2]	17	0	0	0	n/a	n/a	0.0	0	0	0	PAL2	0	R1074M
811.477	0.016	462221	STOP	n/a	n/a	n/a	n/a	-999	-999	n/a	n/a	-999	4	[-999, -999, -999]	n/a	0	0	0	n/a	n/a	0.0	0	0	0	PAL2	0	R1074M
811.493	0.0	462229	MATH_END	n/a	n/a	n/a	n/a	-999	-999	n/a	n/a	-999	4	[0, 0, 0]	n/a	0	0	0	n/a	n/a	0.0	0	0	0	PAL2	0	R1074M
811.493	0.018	462229	TEST_START	n/a	n/a	n/a	n/a	-999	-999	n/a	n/a	-999	4	[0, 0, 0]	n/a	0	0	0	n/a	n/a	0.0	0	0	0	PAL2	0	R1074M
811.511	0.25	462238	TEST_ORIENT	n/a	n/a	THUMB	ROPE	1	1	ROPE	n/a	0	4	[0, 0, 0]	n/a	0	0	0	n/a	n/a	0.0	0	0	0	PAL2	0	R1074M
812.528	0.0	462746	REC_EVENT	0.0	n/a	THUMB	ROPE	1	1	ROPE	<>	0	4	[0, 0, 0]	n/a	0	0	0	n/a	n/a	0.0	0	0	0	PAL2	0	R1074M
812.528	0.0	462746	REC_START	n/a	n/a	n/a	n/a	1	-999	n/a	n/a	0	4	[0, 0, 0]	n/a	0	0	0	n/a	n/a	0.0	0	0	0	PAL2	0	R1074M
812.528	4.0	462746	TEST_PROBE	n/a	wordpools/wordpool_EN.txt	THUMB	ROPE	1	1	ROPE	n/a	0	4	[0, 0, 0]	n/a	0	0	0	n/a	n/a	0.0	0	0	0	PAL2	0	R1074M
817.552	0.01	465258	REC_END	n/a	n/a	n/a	n/a	1	-999	n/a	n/a	-999	4	[0, 0, 0]	n/a	0	0	0	n/a	n/a	0.0	0	0	0	PAL2	0	R1074M
817.562	0.25	465263	TEST_ORIENT	n/a	n/a	WHALE	NET	6	2	WHALE	n/a	0	4	[0, 0, 0]	n/a	0	0	0	n/a	n/a	0.0	0	0	0	PAL2	0	R1074M
818.545	4.0	465754	TEST_PROBE	n/a	wordpools/wordpool_EN.txt	WHALE	NET	6	2	WHALE	n/a	0	4	[0, 0, 0]	n/a	0	0	0	n/a	n/a	0.0	0	0	0	PAL2	0	R1074M
818.546	0.0	465755	REC_START	n/a	n/a	n/a	n/a	6	-999	n/a	n/a	0	4	[0, 0, 0]	n/a	0	0	0	n/a	n/a	0.0	0	0	0	PAL2	0	R1074M
818.546	5.007	465755	REC_EVENT	0.0	n/a	WHALE	NET	6	2	WHALE	<>	0	4	[0, 0, 0]	n/a	0	0	0	n/a	n/a	0.0	0	0	0	PAL2	0	R1074M
823.553	0.01	468258	REC_END	n/a	n/a	n/a	n/a	6	-999	n/a	n/a	-999	4	[0, 0, 0]	n/a	0	0	0	n/a	n/a	0.0	0	0	0	PAL2	0	R1074M
823.563	0.25	468263	TEST_ORIENT	n/a	n/a	COUCH	SPRING	3	3	COUCH	SPRING	1	4	[0, 0, 0]	n/a	0	0	0	n/a	n/a	0.0	0	0	0	PAL2	0	R1074M
824.429	4.0	468696	TEST_PROBE	n/a	wordpools/wordpool_EN.txt	COUCH	SPRING	3	3	COUCH	SPRING	1	4	[0, 0, 0]	n/a	0	0	0	n/a	n/a	0.0	0	0	0	PAL2	0	R1074M
824.429	2.14	468696	REC_START	n/a	n/a	n/a	n/a	3	-999	n/a	SPRING	1	4	[0, 0, 0]	n/a	0	0	0	n/a	n/a	0.0	0	0	0	PAL2	0	R1074M
826.569	2.877	469766	REC_EVENT	2.14	n/a	COUCH	SPRING	3	3	COUCH	SPRING	1	4	[0, 0, 0]	n/a	0	0	0	n/a	n/a	0.0	0	0	0	PAL2	0	R1074M
829.446	0.017	471205	REC_END	n/a	n/a	n/a	n/a	3	-999	n/a	n/a	-999	4	[0, 0, 0]	n/a	0	0	0	n/a	n/a	0.0	0	0	0	PAL2	0	R1074M
829.463	0.25	471213	TEST_ORIENT	n/a	n/a	CLAY	OAR	2	4	OAR	n/a	0	4	[0, 0, 0]	n/a	0	0	0	n/a	n/a	0.0	0	0	0	PAL2	0	R1074M
830.313	4.0	471638	TEST_PROBE	n/a	wordpools/wordpool_EN.txt	CLAY	OAR	2	4	OAR	n/a	0	4	[0, 0, 0]	n/a	0	0	0	n/a	n/a	0.0	0	0	0	PAL2	0	R1074M
830.314	0.0	471639	REC_EVENT	0.0	n/a	CLAY	OAR	2	4	OAR	<>	0	4	[0, 0, 0]	n/a	0	0	0	n/a	n/a	0.0	0	0	0	PAL2	0	R1074M
830.314	5.007	471639	REC_START	n/a	n/a	n/a	n/a	2	-999	n/a	n/a	0	4	[0, 0, 0]	n/a	0	0	0	n/a	n/a	0.0	0	0	0	PAL2	0	R1074M
835.321	0.01	474142	REC_END	n/a	n/a	n/a	n/a	2	-999	n/a	n/a	-999	4	[0, 0, 0]	n/a	0	0	0	n/a	n/a	0.0	0	0	0	PAL2	0	R1074M
835.331	0.25	474147	TEST_ORIENT	n/a	n/a	CROWN	CHIEF	5	5	CHIEF	n/a	0	4	[0, 0, 0]	n/a	0	0	0	n/a	n/a	0.0	0	0	0	PAL2	0	R1074M
836.131	4.0	474547	TEST_PROBE	n/a	wordpools/wordpool_EN.txt	CROWN	CHIEF	5	5	CHIEF	n/a	0	4	[0, 0, 0]	n/a	0	0	0	n/a	n/a	0.0	0	0	0	PAL2	0	R1074M
836.132	0.0	474547	REC_START	n/a	n/a	n/a	n/a	5	-999	n/a	n/a	0	4	[0, 0, 0]	n/a	0	0	0	n/a	n/a	0.0	0	0	0	PAL2	0	R1074M
836.132	5.007	474547	REC_EVENT	0.0	n/a	CROWN	CHIEF	5	5	CHIEF	<>	0	4	[0, 0, 0]	n/a	0	0	0	n/a	n/a	0.0	0	0	0	PAL2	0	R1074M
841.139	0.01	477051	REC_END	n/a	n/a	n/a	n/a	5	-999	n/a	n/a	-999	4	[0, 0, 0]	n/a	0	0	0	n/a	n/a	0.0	0	0	0	PAL2	0	R1074M
841.149	0.25	477056	TEST_ORIENT	n/a	n/a	SOUP	BEACH	4	6	SOUP	n/a	0	4	[0, 0, 0]	n/a	0	0	0	n/a	n/a	0.0	0	0	0	PAL2	0	R1074M
842.083	4.0	477523	TEST_PROBE	n/a	wordpools/wordpool_EN.txt	SOUP	BEACH	4	6	SOUP	n/a	0	4	[0, 0, 0]	n/a	0	0	0	n/a	n/a	0.0	0	0	0	PAL2	0	R1074M
842.083	0.0	477523	REC_START	n/a	n/a	n/a	n/a	4	-999	n/a	n/a	0	4	[0, 0, 0]	n/a	0	0	0	n/a	n/a	0.0	0	0	0	PAL2	0	R1074M
842.083	5.017	477523	REC_EVENT	0.0	n/a	SOUP	BEACH	4	6	SOUP	<>	0	4	[0, 0, 0]	n/a	0	0	0	n/a	n/a	0.0	0	0	0	PAL2	0	R1074M
847.1	4.522	480031	REC_END	n/a	n/a	n/a	n/a	4	-999	n/a	n/a	-999	4	[0, 0, 0]	n/a	0	0	0	n/a	n/a	0.0	0	0	0	PAL2	0	R1074M
851.622	10.448	482292	ENCODING_START	n/a	n/a	n/a	n/a	0	-999	n/a	n/a	-999	5	[0, 0, 0]	n/a	0	1	0	n/a	n/a	0.0	0	0	0	PAL2	0	R1074M
862.07	0.25	487516	STUDY_ORIENT	n/a	n/a	MUG	RAIN	1	5	MUG	n/a	0	5	[0, 0, 0]	n/a	0	1	0	n/a	n/a	0.0	0	0	0	PAL2	0	R1074M
863.037	4.0	487999	STUDY_PAIR	n/a	wordpools/wordpool_EN.txt	MUG	RAIN	1	5	MUG	n/a	0	5	[0, 0, 0]	n/a	0	1	0	n/a	n/a	0.0	0	0	0	PAL2	0	R1074M
868.071	0.25	490516	STUDY_ORIENT	n/a	n/a	DITCH	BOOT	2	2	DITCH	n/a	0	5	[0, 0, 0]	n/a	0	1	0	n/a	n/a	0.0	0	0	0	PAL2	0	R1074M
869.071	4.0	491016	STUDY_PAIR	n/a	wordpools/wordpool_EN.txt	DITCH	BOOT	2	2	DITCH	n/a	0	5	[0, 0, 0]	n/a	0	1	0	n/a	n/a	0.0	0	0	0	PAL2	0	R1074M
874.089	0.25	493525	STUDY_ORIENT	n/a	n/a	TRASH	BENCH	3	3	BENCH	n/a	0	5	[0, 0, 0]	n/a	0	1	0	n/a	n/a	0.0	0	0	0	PAL2	0	R1074M
874.94	4.0	493950	STUDY_PAIR	n/a	wordpools/wordpool_EN.txt	TRASH	BENCH	3	3	BENCH	n/a	0	5	[0, 0, 0]	n/a	0	1	0	n/a	n/a	0.0	0	0	0	PAL2	0	R1074M
879.974	0.25	496467	STUDY_ORIENT	n/a	n/a	TOAST	FRUIT	4	4	FRUIT	n/a	0	5	[0, 0, 0]	n/a	0	1	0	n/a	n/a	0.0	0	0	0	PAL2	0	R1074M
880.908	4.0	496934	STUDY_PAIR	n/a	wordpools/wordpool_EN.txt	TOAST	FRUIT	4	4	FRUIT	n/a	0	5	[0, 0, 0]	n/a	0	1	0	n/a	n/a	0.0	0	0	0	PAL2	0	R1074M
885.942	0.25	499451	STUDY_ORIENT	n/a	n/a	MAT	TENT	5	1	TENT	n/a	0	5	[0, 0, 0]	n/a	0	1	0	n/a	n/a	0.0	0	0	0	PAL2	0	R1074M
886.892	4.0	499926	STUDY_PAIR	n/a	wordpools/wordpool_EN.txt	MAT	TENT	5	1	TENT	n/a	0	5	[0, 0, 0]	n/a	0	1	0	n/a	n/a	0.0	0	0	0	PAL2	0	R1074M
891.91	0.25	502435	STUDY_ORIENT	n/a	n/a	SHRIMP	CAPE	6	6	SHRIMP	n/a	0	5	[0, 0, 0]	n/a	0	1	0	n/a	n/a	0.0	0	0	0	PAL2	0	R1074M
892.76	4.0	502860	STUDY_PAIR	n/a	wordpools/wordpool_EN.txt	SHRIMP	CAPE	6	6	SHRIMP	n/a	0	5	[0, 0, 0]	n/a	0	1	0	n/a	n/a	0.0	0	0	0	PAL2	0	R1074M
896.761	1.0	504860	START	n/a	n/a	n/a	n/a	-999	-999	n/a	n/a	-999	5	[-999, -999, -999]	n/a	0	1	0	n/a	n/a	0.0	0	0	0	PAL2	0	R1074M
897.761	0.017	505360	MATH_START	n/a	n/a	n/a	n/a	-999	-999	n/a	n/a	-999	5	[0, 0, 0]	n/a	0	1	0	n/a	n/a	0.0	0	0	0	PAL2	0	R1074M
897.778	6.735	505369	PROB	6.699	n/a	n/a	n/a	-999	-999	n/a	n/a	-999	5	[6, 9, 1]	16	0	1	0	n/a	n/a	0.0	0	0	0	PAL2	0	R1074M
904.513	10.002	508736	PROB	9.964	n/a	n/a	n/a	-999	-999	n/a	n/a	-999	5	[8, 8, 9]	25	0	1	0	n/a	n/a	0.0	0	0	0	PAL2	0	R1074M
914.515	5.355	513737	PROB	5.355	n/a	n/a	n/a	-999	-999	n/a	n/a	-999	5	[7, 1, 2]	10	0	1	0	n/a	n/a	0.0	0	0	0	PAL2	0	R1074M
919.87	0.012	516414	STOP	n/a	n/a	n/a	n/a	-999	-999	n/a	n/a	-999	5	[-999, -999, -999]	n/a	0	1	0	n/a	n/a	0.0	0	0	0	PAL2	0	R1074M
919.882	0.0	516420	MATH_END	n/a	n/a	n/a	n/a	-999	-999	n/a	n/a	-999	5	[0, 0, 0]	n/a	0	1	0	n/a	n/a	0.0	0	0	0	PAL2	0	R1074M
919.882	0.017	516420	TEST_START	n/a	n/a	n/a	n/a	-999	-999	n/a	n/a	-999	5	[0, 0, 0]	n/a	0	1	0	n/a	n/a	0.0	0	0	0	PAL2	0	R1074M
919.899	0.25	516429	TEST_ORIENT	n/a	n/a	MAT	TENT	5	1	TENT	n/a	0	5	[0, 0, 0]	n/a	0	1	0	n/a	n/a	0.0	0	0	0	PAL2	0	R1074M
920.916	0.0	516937	REC_EVENT	0.0	n/a	MAT	TENT	5	1	TENT	<>	0	5	[0, 0, 0]	n/a	0	1	0	n/a	n/a	0.0	0	0	0	PAL2	0	R1074M
920.916	0.0	516937	REC_START	n/a	n/a	n/a	n/a	5	-999	n/a	n/a	0	5	[0, 0, 0]	n/a	0	1	0	n/a	n/a	0.0	0	0	0	PAL2	0	R1074M
920.916	4.0	516937	TEST_PROBE	n/a	wordpools/wordpool_EN.txt	MAT	TENT	5	1	TENT	n/a	0	5	[0, 0, 0]	n/a	0	1	0	n/a	n/a	0.0	0	0	0	PAL2	0	R1074M
925.933	0.017	519445	REC_END	n/a	n/a	n/a	n/a	5	-999	n/a	n/a	-999	5	[0, 0, 0]	n/a	0	1	0	n/a	n/a	0.0	0	0	0	PAL2	0	R1074M
925.95	0.25	519454	TEST_ORIENT	n/a	n/a	DITCH	BOOT	2	2	DITCH	n/a	0	5	[0, 0, 0]	n/a	0	1	0	n/a	n/a	0.0	0	0	0	PAL2	0	R1074M
926.654	4.6	519806	STIM_ON	n/a	n/a	DITCH	BOOT	2	2	DITCH	n/a	0	5	[0, 0, 0]	n/a	1	1	4600	LW1	LW2	1000.0	50	230	300	PAL2	0	R1074M
926.867	4.0	519912	TEST_PROBE	n/a	wordpools/wordpool_EN.txt	DITCH	BOOT	2	2	DITCH	n/a	0	5	[0, 0, 0]	n/a	1	1	4600	LW1	LW2	1000.0	50	230	300	PAL2	0	R1074M
926.868	0.0	519913	REC_START	n/a	n/a	n/a	n/a	2	-999	n/a	n/a	0	5	[0, 0, 0]	n/a	1	1	4600	LW1	LW2	1000.0	50	230	300	PAL2	0	R1074M
926.868	5.016	519913	REC_EVENT	0.0	n/a	DITCH	BOOT	2	2	DITCH	<>	0	5	[0, 0, 0]	n/a	1	1	4600	LW1	LW2	1000.0	50	230	300	PAL2	0	R1074M
931.884	0.017	522421	REC_END	n/a	n/a	n/a	n/a	2	-999	n/a	n/a	-999	5	[0, 0, 0]	n/a	0	1	0	n/a	n/a	0.0	0	0	0	PAL2	0	R1074M
931.901	0.25	522429	TEST_ORIENT	n/a	n/a	TRASH	BENCH	3	3	BENCH	n/a	0	5	[0, 0, 0]	n/a	0	1	0	n/a	n/a	0.0	0	0	0	PAL2	0	R1074M
932.818	4.0	522888	TEST_PROBE	n/a	wordpools/wordpool_EN.txt	TRASH	BENCH	3	3	BENCH	n/a	0	5	[0, 0, 0]	n/a	0	1	0	n/a	n/a	0.0	0	0	0	PAL2	0	R1074M
932.819	0.0	522888	REC_START	n/a	n/a	n/a	n/a	3	-999	n/a	n/a	0	5	[0, 0, 0]	n/a	0	1	0	n/a	n/a	0.0	0	0	0	PAL2	0	R1074M
932.819	5.007	522888	REC_EVENT	0.0	n/a	TRASH	BENCH	3	3	BENCH	<>	0	5	[0, 0, 0]	n/a	0	1	0	n/a	n/a	0.0	0	0	0	PAL2	0	R1074M
937.826	0.01	525392	REC_END	n/a	n/a	n/a	n/a	3	-999	n/a	n/a	-999	5	[0, 0, 0]	n/a	0	1	0	n/a	n/a	0.0	0	0	0	PAL2	0	R1074M
937.836	0.25	525397	TEST_ORIENT	n/a	n/a	TOAST	FRUIT	4	4	FRUIT	n/a	0	5	[0, 0, 0]	n/a	0	1	0	n/a	n/a	0.0	0	0	0	PAL2	0	R1074M
938.554	4.6	525756	STIM_ON	n/a	n/a	TOAST	FRUIT	4	4	FRUIT	n/a	0	5	[0, 0, 0]	n/a	1	1	4600	LW1	LW2	1000.0	50	230	300	PAL2	0	R1074M
938.769	4.0	525863	TEST_PROBE	n/a	wordpools/wordpool_EN.txt	TOAST	FRUIT	4	4	FRUIT	n/a	0	5	[0, 0, 0]	n/a	1	1	4600	LW1	LW2	1000.0	50	230	300	PAL2	0	R1074M
938.77	0.0	525864	REC_START	n/a	n/a	n/a	n/a	4	-999	n/a	n/a	0	5	[0, 0, 0]	n/a	1	1	4600	LW1	LW2	1000.0	50	230	300	PAL2	0	R1074M
938.77	5.007	525864	REC_EVENT	0.0	n/a	TOAST	FRUIT	4	4	FRUIT	<>	0	5	[0, 0, 0]	n/a	1	1	4600	LW1	LW2	1000.0	50	230	300	PAL2	0	R1074M
943.777	0.01	528367	REC_END	n/a	n/a	n/a	n/a	4	-999	n/a	n/a	-999	5	[0, 0, 0]	n/a	0	1	0	n/a	n/a	0.0	0	0	0	PAL2	0	R1074M
943.787	0.25	528372	TEST_ORIENT	n/a	n/a	MUG	RAIN	1	5	MUG	n/a	0	5	[0, 0, 0]	n/a	0	1	0	n/a	n/a	0.0	0	0	0	PAL2	0	R1074M
944.671	4.0	528814	TEST_PROBE	n/a	wordpools/wordpool_EN.txt	MUG	RAIN	1	5	MUG	n/a	0	5	[0, 0, 0]	n/a	0	1	0	n/a	n/a	0.0	0	0	0	PAL2	0	R1074M
944.671	0.0	528814	REC_START	n/a	n/a	n/a	n/a	1	-999	n/a	n/a	0	5	[0, 0, 0]	n/a	0	1	0	n/a	n/a	0.0	0	0	0	PAL2	0	R1074M
944.671	5.017	528814	REC_EVENT	0.0	n/a	MUG	RAIN	1	5	MUG	<>	0	5	[0, 0, 0]	n/a	0	1	0	n/a	n/a	0.0	0	0	0	PAL2	0	R1074M
949.688	0.017	531322	REC_END	n/a	n/a	n/a	n/a	1	-999	n/a	n/a	-999	5	[0, 0, 0]	n/a	0	1	0	n/a	n/a	0.0	0	0	0	PAL2	0	R1074M
949.705	0.25	531331	TEST_ORIENT	n/a	n/a	SHRIMP	CAPE	6	6	SHRIMP	n/a	0	5	[0, 0, 0]	n/a	0	1	0	n/a	n/a	0.0	0	0	0	PAL2	0	R1074M
950.493	4.6	531725	STIM_ON	n/a	n/a	SHRIMP	CAPE	6	6	SHRIMP	n/a	0	5	[0, 0, 0]	n/a	1	1	4600	LW1	LW2	1000.0	50	230	300	PAL2	0	R1074M
950.705	4.0	531831	TEST_PROBE	n/a	wordpools/wordpool_EN.txt	SHRIMP	CAPE	6	6	SHRIMP	n/a	0	5	[0, 0, 0]	n/a	1	1	4600	LW1	LW2	1000.0	50	230	300	PAL2	0	R1074M
950.706	0.0	531831	REC_EVENT	0.0	n/a	SHRIMP	CAPE	6	6	SHRIMP	<>	0	5	[0, 0, 0]	n/a	1	1	4600	LW1	LW2	1000.0	50	230	300	PAL2	0	R1074M
950.706	5.007	531831	REC_START	n/a	n/a	n/a	n/a	6	-999	n/a	n/a	0	5	[0, 0, 0]	n/a	1	1	4600	LW1	LW2	1000.0	50	230	300	PAL2	0	R1074M
955.713	30.62	534335	REC_END	n/a	n/a	n/a	n/a	6	-999	n/a	n/a	-999	5	[0, 0, 0]	n/a	0	1	0	n/a	n/a	0.0	0	0	0	PAL2	0	R1074M
986.333	10.448	549644	ENCODING_START	n/a	n/a	n/a	n/a	0	-999	n/a	n/a	-999	6	[0, 0, 0]	n/a	0	1	0	n/a	n/a	0.0	0	0	0	PAL2	0	R1074M
996.781	0.25	554867	STUDY_ORIENT	n/a	n/a	WOOD	CORD	1	5	WOOD	n/a	0	6	[0, 0, 0]	n/a	0	1	0	n/a	n/a	0.0	0	0	0	PAL2	0	R1074M
997.598	4.0	555276	STUDY_PAIR	n/a	wordpools/wordpool_EN.txt	WOOD	CORD	1	5	WOOD	n/a	0	6	[0, 0, 0]	n/a	0	1	0	n/a	n/a	0.0	0	0	0	PAL2	0	R1074M
1002.632	0.25	557793	STUDY_ORIENT	n/a	n/a	FISH	HOOK	2	2	HOOK	n/a	0	6	[0, 0, 0]	n/a	0	1	0	n/a	n/a	0.0	0	0	0	PAL2	0	R1074M
1003.566	4.0	558260	STUDY_PAIR	n/a	wordpools/wordpool_EN.txt	FISH	HOOK	2	2	HOOK	n/a	0	6	[0, 0, 0]	n/a	0	1	0	n/a	n/a	0.0	0	0	0	PAL2	0	R1074M
1008.6	0.25	560777	STUDY_ORIENT	n/a	n/a	MULE	TREE	3	3	MULE	n/a	0	6	[0, 0, 0]	n/a	0	1	0	n/a	n/a	0.0	0	0	0	PAL2	0	R1074M
1009.382	4.0	561168	STUDY_PAIR	n/a	wordpools/wordpool_EN.txt	MULE	TREE	3	3	MULE	n/a	0	6	[0, 0, 0]	n/a	0	1	0	n/a	n/a	0.0	0	0	0	PAL2	0	R1074M
1014.4	0.25	563676	STUDY_ORIENT	n/a	n/a	PALM	ROOM	4	4	ROOM	n/a	0	6	[0, 0, 0]	n/a	0	1	0	n/a	n/a	0.0	0	0	0	PAL2	0	R1074M
1015.267	4.0	564110	STUDY_PAIR	n/a	wordpools/wordpool_EN.txt	PALM	ROOM	4	4	ROOM	n/a	0	6	[0, 0, 0]	n/a	0	1	0	n/a	n/a	0.0	0	0	0	PAL2	0	R1074M
1020.301	0.25	566627	STUDY_ORIENT	n/a	n/a	BOY	MUD	5	1	BOY	n/a	0	6	[0, 0, 0]	n/a	0	1	0	n/a	n/a	0.0	0	0	0	PAL2	0	R1074M
1021.168	4.0	567060	STUDY_PAIR	n/a	wordpools/wordpool_EN.txt	BOY	MUD	5	1	BOY	n/a	0	6	[0, 0, 0]	n/a	0	1	0	n/a	n/a	0.0	0	0	0	PAL2	0	R1074M
1026.186	0.25	569569	STUDY_ORIENT	n/a	n/a	SIGN	CLOTH	6	6	CLOTH	n/a	0	6	[0, 0, 0]	n/a	0	1	0	n/a	n/a	0.0	0	0	0	PAL2	0	R1074M
1027.019	4.0	569986	STUDY_PAIR	n/a	wordpools/wordpool_EN.txt	SIGN	CLOTH	6	6	CLOTH	n/a	0	6	[0, 0, 0]	n/a	0	1	0	n/a	n/a	0.0	0	0	0	PAL2	0	R1074M
1031.02	1.0	571986	START	n/a	n/a	n/a	n/a	-999	-999	n/a	n/a	-999	6	[-999, -999, -999]	n/a	0	1	0	n/a	n/a	0.0	0	0	0	PAL2	0	R1074M
1032.02	0.017	572486	MATH_START	n/a	n/a	n/a	n/a	-999	-999	n/a	n/a	-999	6	[0, 0, 0]	n/a	0	1	0	n/a	n/a	0.0	0	0	0	PAL2	0	R1074M
1032.037	7.252	572494	PROB	7.216	n/a	n/a	n/a	-999	-999	n/a	n/a	-999	6	[2, 7, 6]	15	0	1	0	n/a	n/a	0.0	0	0	0	PAL2	0	R1074M
1039.289	5.652	576120	PROB	5.629	n/a	n/a	n/a	-999	-999	n/a	n/a	-999	6	[7, 9, 1]	17	0	1	0	n/a	n/a	0.0	0	0	0	PAL2	0	R1074M
1044.941	9.304	578946	PROB	9.304	n/a	n/a	n/a	-999	-999	n/a	n/a	-999	6	[2, 6, 1]	9	0	1	0	n/a	n/a	0.0	0	0	0	PAL2	0	R1074M
1054.245	0.013	583598	STOP	n/a	n/a	n/a	n/a	-999	-999	n/a	n/a	-999	6	[-999, -999, -999]	n/a	0	1	0	n/a	n/a	0.0	0	0	0	PAL2	0	R1074M
1054.258	0.0	583604	TEST_START	n/a	n/a	n/a	n/a	-999	-999	n/a	n/a	-999	6	[0, 0, 0]	n/a	0	1	0	n/a	n/a	0.0	0	0	0	PAL2	0	R1074M
1054.258	0.017	583604	MATH_END	n/a	n/a	n/a	n/a	-999	-999	n/a	n/a	-999	6	[0, 0, 0]	n/a	0	1	0	n/a	n/a	0.0	0	0	0	PAL2	0	R1074M
1054.275	0.25	583613	TEST_ORIENT	n/a	n/a	BOY	MUD	5	1	BOY	n/a	0	6	[0, 0, 0]	n/a	0	1	0	n/a	n/a	0.0	0	0	0	PAL2	0	R1074M
1054.963	4.6	583957	STIM_ON	n/a	n/a	BOY	MUD	5	1	BOY	n/a	0	6	[0, 0, 0]	n/a	1	1	4600	LW1	LW2	1000.0	50	230	300	PAL2	0	R1074M
1055.175	4.0	584063	TEST_PROBE	n/a	wordpools/wordpool_EN.txt	BOY	MUD	5	1	BOY	n/a	0	6	[0, 0, 0]	n/a	1	1	4600	LW1	LW2	1000.0	50	230	300	PAL2	0	R1074M
1055.175	0.0	584063	REC_START	n/a	n/a	n/a	n/a	5	-999	n/a	n/a	0	6	[0, 0, 0]	n/a	1	1	4600	LW1	LW2	1000.0	50	230	300	PAL2	0	R1074M
1055.175	5.018	584063	REC_EVENT	0.0	n/a	BOY	MUD	5	1	BOY	<>	0	6	[0, 0, 0]	n/a	1	1	4600	LW1	LW2	1000.0	50	230	300	PAL2	0	R1074M
1060.193	0.016	586572	REC_END	n/a	n/a	n/a	n/a	5	-999	n/a	n/a	-999	6	[0, 0, 0]	n/a	0	1	0	n/a	n/a	0.0	0	0	0	PAL2	0	R1074M
1060.209	0.25	586580	TEST_ORIENT	n/a	n/a	FISH	HOOK	2	2	HOOK	n/a	0	6	[0, 0, 0]	n/a	0	1	0	n/a	n/a	0.0	0	0	0	PAL2	0	R1074M
1061.043	4.0	586997	TEST_PROBE	n/a	wordpools/wordpool_EN.txt	FISH	HOOK	2	2	HOOK	n/a	0	6	[0, 0, 0]	n/a	0	1	0	n/a	n/a	0.0	0	0	0	PAL2	0	R1074M
1061.044	0.0	586997	REC_START	n/a	n/a	n/a	n/a	2	-999	n/a	n/a	0	6	[0, 0, 0]	n/a	0	1	0	n/a	n/a	0.0	0	0	0	PAL2	0	R1074M
1061.044	5.023	586997	REC_EVENT	0.0	n/a	FISH	HOOK	2	2	HOOK	<>	0	6	[0, 0, 0]	n/a	0	1	0	n/a	n/a	0.0	0	0	0	PAL2	0	R1074M
1066.067	0.01	589509	REC_END	n/a	n/a	n/a	n/a	2	-999	n/a	n/a	-999	6	[0, 0, 0]	n/a	0	1	0	n/a	n/a	0.0	0	0	0	PAL2	0	R1074M
1066.077	0.25	589514	TEST_ORIENT	n/a	n/a	MULE	TREE	3	3	MULE	n/a	0	6	[0, 0, 0]	n/a	0	1	0	n/a	n/a	0.0	0	0	0	PAL2	0	R1074M
1066.686	4.6	589818	STIM_ON	n/a	n/a	MULE	TREE	3	3	MULE	n/a	0	6	[0, 0, 0]	n/a	1	1	4600	LW1	LW2	1000.0	50	230	300	PAL2	0	R1074M
1066.895	0.0	589923	REC_EVENT	0.0	n/a	MULE	TREE	3	3	MULE	<>	0	6	[0, 0, 0]	n/a	1	1	4600	LW1	LW2	1000.0	50	230	300	PAL2	0	R1074M
1066.895	0.0	589923	REC_START	n/a	n/a	n/a	n/a	3	-999	n/a	n/a	0	6	[0, 0, 0]	n/a	1	1	4600	LW1	LW2	1000.0	50	230	300	PAL2	0	R1074M
1066.895	4.0	589923	TEST_PROBE	n/a	wordpools/wordpool_EN.txt	MULE	TREE	3	3	MULE	n/a	0	6	[0, 0, 0]	n/a	1	1	4600	LW1	LW2	1000.0	50	230	300	PAL2	0	R1074M
1071.912	0.017	592431	REC_END	n/a	n/a	n/a	n/a	3	-999	n/a	n/a	-999	6	[0, 0, 0]	n/a	0	1	0	n/a	n/a	0.0	0	0	0	PAL2	0	R1074M
1071.929	0.25	592439	TEST_ORIENT	n/a	n/a	PALM	ROOM	4	4	ROOM	n/a	0	6	[0, 0, 0]	n/a	0	1	0	n/a	n/a	0.0	0	0	0	PAL2	0	R1074M
1072.963	4.0	592956	TEST_PROBE	n/a	wordpools/wordpool_EN.txt	PALM	ROOM	4	4	ROOM	n/a	0	6	[0, 0, 0]	n/a	0	1	0	n/a	n/a	0.0	0	0	0	PAL2	0	R1074M
1072.963	0.0	592956	REC_START	n/a	n/a	n/a	n/a	4	-999	n/a	n/a	0	6	[0, 0, 0]	n/a	0	1	0	n/a	n/a	0.0	0	0	0	PAL2	0	R1074M
1072.963	5.017	592956	REC_EVENT	0.0	n/a	PALM	ROOM	4	4	ROOM	<>	0	6	[0, 0, 0]	n/a	0	1	0	n/a	n/a	0.0	0	0	0	PAL2	0	R1074M
1077.98	0.017	595465	REC_END	n/a	n/a	n/a	n/a	4	-999	n/a	n/a	-999	6	[0, 0, 0]	n/a	0	1	0	n/a	n/a	0.0	0	0	0	PAL2	0	R1074M
1077.997	0.25	595473	TEST_ORIENT	n/a	n/a	WOOD	CORD	1	5	WOOD	n/a	0	6	[0, 0, 0]	n/a	0	1	0	n/a	n/a	0.0	0	0	0	PAL2	0	R1074M
1078.787	4.6	595868	STIM_ON	n/a	n/a	WOOD	CORD	1	5	WOOD	n/a	0	6	[0, 0, 0]	n/a	1	1	4600	LW1	LW2	1000.0	50	230	300	PAL2	0	R1074M
1078.997	4.0	595973	TEST_PROBE	n/a	wordpools/wordpool_EN.txt	WOOD	CORD	1	5	WOOD	n/a	0	6	[0, 0, 0]	n/a	1	1	4600	LW1	LW2	1000.0	50	230	300	PAL2	0	R1074M
1078.998	0.0	595974	REC_START	n/a	n/a	n/a	n/a	1	-999	n/a	n/a	0	6	[0, 0, 0]	n/a	1	1	4600	LW1	LW2	1000.0	50	230	300	PAL2	0	R1074M
1078.998	5.008	595974	REC_EVENT	0.0	n/a	WOOD	CORD	1	5	WOOD	<>	0	6	[0, 0, 0]	n/a	1	1	4600	LW1	LW2	1000.0	50	230	300	PAL2	0	R1074M
1084.006	0.008	598478	REC_END	n/a	n/a	n/a	n/a	1	-999	n/a	n/a	-999	6	[0, 0, 0]	n/a	0	1	0	n/a	n/a	0.0	0	0	0	PAL2	0	R1074M
1084.014	0.25	598482	TEST_ORIENT	n/a	n/a	SIGN	CLOTH	6	6	CLOTH	n/a	0	6	[0, 0, 0]	n/a	0	1	0	n/a	n/a	0.0	0	0	0	PAL2	0	R1074M
1084.949	0.0	598949	REC_EVENT	0.0	n/a	SIGN	CLOTH	6	6	CLOTH	<>	0	6	[0, 0, 0]	n/a	0	1	0	n/a	n/a	0.0	0	0	0	PAL2	0	R1074M
1084.949	4.0	598949	TEST_PROBE	n/a	wordpools/wordpool_EN.txt	SIGN	CLOTH	6	6	CLOTH	n/a	0	6	[0, 0, 0]	n/a	0	1	0	n/a	n/a	0.0	0	0	0	PAL2	0	R1074M
1084.949	5.025	598949	REC_START	n/a	n/a	n/a	n/a	6	-999	n/a	n/a	0	6	[0, 0, 0]	n/a	0	1	0	n/a	n/a	0.0	0	0	0	PAL2	0	R1074M
1089.974	13.952	601461	REC_END	n/a	n/a	n/a	n/a	6	-999	n/a	n/a	-999	6	[0, 0, 0]	n/a	0	1	0	n/a	n/a	0.0	0	0	0	PAL2	0	R1074M
1103.926	10.444	608437	ENCODING_START	n/a	n/a	n/a	n/a	0	-999	n/a	n/a	-999	7	[0, 0, 0]	n/a	0	1	0	n/a	n/a	0.0	0	0	0	PAL2	0	R1074M
1114.37	0.25	613659	STUDY_ORIENT	n/a	n/a	PANTS	PEA	1	3	PANTS	SHOES	0	7	[0, 0, 0]	n/a	0	1	0	n/a	n/a	0.0	0	0	0	PAL2	0	R1074M
1115.049	4.6	613998	STIM_ON	n/a	n/a	PANTS	PEA	1	3	PANTS	SHOES	0	7	[0, 0, 0]	n/a	1	1	4600	LW1	LW2	1000.0	50	230	300	PAL2	0	R1074M
1115.254	4.0	614101	STUDY_PAIR	n/a	wordpools/wordpool_EN.txt	PANTS	PEA	1	3	PANTS	SHOES	0	7	[0, 0, 0]	n/a	1	1	4600	LW1	LW2	1000.0	50	230	300	PAL2	0	R1074M
1120.288	0.25	616618	STUDY_ORIENT	n/a	n/a	EGG	JUDGE	2	4	JUDGE	n/a	0	7	[0, 0, 0]	n/a	0	1	0	n/a	n/a	0.0	0	0	0	PAL2	0	R1074M
1121.105	4.0	617026	STUDY_PAIR	n/a	wordpools/wordpool_EN.txt	EGG	JUDGE	2	4	JUDGE	n/a	0	7	[0, 0, 0]	n/a	0	1	0	n/a	n/a	0.0	0	0	0	PAL2	0	R1074M
1126.139	0.25	619543	STUDY_ORIENT	n/a	n/a	STEAK	FLEA	3	5	FLEA	n/a	0	7	[0, 0, 0]	n/a	0	1	0	n/a	n/a	0.0	0	0	0	PAL2	0	R1074M
1126.805	4.6	619876	STIM_ON	n/a	n/a	STEAK	FLEA	3	5	FLEA	n/a	0	7	[0, 0, 0]	n/a	1	1	4600	LW1	LW2	1000.0	50	230	300	PAL2	0	R1074M
1127.007	4.0	619977	STUDY_PAIR	n/a	wordpools/wordpool_EN.txt	STEAK	FLEA	3	5	FLEA	n/a	0	7	[0, 0, 0]	n/a	1	1	4600	LW1	LW2	1000.0	50	230	300	PAL2	0	R1074M
1132.04	0.25	622493	STUDY_ORIENT	n/a	n/a	HEART	LAMB	4	6	HEART	n/a	0	7	[0, 0, 0]	n/a	0	1	0	n/a	n/a	0.0	0	0	0	PAL2	0	R1074M
1132.958	4.0	622952	STUDY_PAIR	n/a	wordpools/wordpool_EN.txt	HEART	LAMB	4	6	HEART	n/a	0	7	[0, 0, 0]	n/a	0	1	0	n/a	n/a	0.0	0	0	0	PAL2	0	R1074M
1137.993	0.25	625470	STUDY_ORIENT	n/a	n/a	STORE	SEA	5	1	SEA	n/a	0	7	[0, 0, 0]	n/a	0	1	0	n/a	n/a	0.0	0	0	0	PAL2	0	R1074M
1138.669	4.6	625808	STIM_ON	n/a	n/a	STORE	SEA	5	1	SEA	n/a	0	7	[0, 0, 0]	n/a	1	1	4600	LW1	LW2	1000.0	50	230	300	PAL2	0	R1074M
1138.876	4.0	625911	STUDY_PAIR	n/a	wordpools/wordpool_EN.txt	STORE	SEA	5	1	SEA	n/a	0	7	[0, 0, 0]	n/a	1	1	4600	LW1	LW2	1000.0	50	230	300	PAL2	0	R1074M
1143.91	0.25	628428	STUDY_ORIENT	n/a	n/a	ROOT	RAT	6	2	RAT	n/a	0	7	[0, 0, 0]	n/a	0	1	0	n/a	n/a	0.0	0	0	0	PAL2	0	R1074M
1144.894	4.0	628920	STUDY_PAIR	n/a	wordpools/wordpool_EN.txt	ROOT	RAT	6	2	RAT	n/a	0	7	[0, 0, 0]	n/a	0	1	0	n/a	n/a	0.0	0	0	0	PAL2	0	R1074M
1148.912	0.999	630929	START	n/a	n/a	n/a	n/a	-999	-999	n/a	n/a	-999	7	[-999, -999, -999]	n/a	0	1	0	n/a	n/a	0.0	0	0	0	PAL2	0	R1074M
1149.911	0.017	631428	MATH_START	n/a	n/a	n/a	n/a	-999	-999	n/a	n/a	-999	7	[0, 0, 0]	n/a	0	1	0	n/a	n/a	0.0	0	0	0	PAL2	0	R1074M
1149.928	13.535	631437	PROB	13.509	n/a	n/a	n/a	-999	-999	n/a	n/a	-999	7	[8, 4, 6]	18	0	1	0	n/a	n/a	0.0	0	0	0	PAL2	0	R1074M
1163.463	8.87	638204	PROB	8.87	n/a	n/a	n/a	-999	-999	n/a	n/a	-999	7	[5, 6, 4]	15	0	1	0	n/a	n/a	0.0	0	0	0	PAL2	0	R1074M
1172.333	0.015	642639	STOP	n/a	n/a	n/a	n/a	-999	-999	n/a	n/a	-999	7	[-999, -999, -999]	n/a	0	1	0	n/a	n/a	0.0	0	0	0	PAL2	0	R1074M
1172.348	0.0	642646	MATH_END	n/a	n/a	n/a	n/a	-999	-999	n/a	n/a	-999	7	[0, 0, 0]	n/a	0	1	0	n/a	n/a	0.0	0	0	0	PAL2	0	R1074M
1172.348	0.017	642646	TEST_START	n/a	n/a	n/a	n/a	-999	-999	n/a	n/a	-999	7	[0, 0, 0]	n/a	0	1	0	n/a	n/a	0.0	0	0	0	PAL2	0	R1074M
1172.365	0.25	642655	TEST_ORIENT	n/a	n/a	STORE	SEA	5	1	SEA	n/a	0	7	[0, 0, 0]	n/a	0	1	0	n/a	n/a	0.0	0	0	0	PAL2	0	R1074M
1173.365	4.0	643155	TEST_PROBE	n/a	wordpools/wordpool_EN.txt	STORE	SEA	5	1	SEA	n/a	0	7	[0, 0, 0]	n/a	0	1	0	n/a	n/a	0.0	0	0	0	PAL2	0	R1074M
1173.366	0.0	643155	REC_START	n/a	n/a	n/a	n/a	5	-999	n/a	n/a	0	7	[0, 0, 0]	n/a	0	1	0	n/a	n/a	0.0	0	0	0	PAL2	0	R1074M
1173.366	5.007	643155	REC_EVENT	0.0	n/a	STORE	SEA	5	1	SEA	<>	0	7	[0, 0, 0]	n/a	0	1	0	n/a	n/a	0.0	0	0	0	PAL2	0	R1074M
1178.373	0.01	645658	REC_END	n/a	n/a	n/a	n/a	5	-999	n/a	n/a	-999	7	[0, 0, 0]	n/a	0	1	0	n/a	n/a	0.0	0	0	0	PAL2	0	R1074M
1178.383	0.25	645663	TEST_ORIENT	n/a	n/a	ROOT	RAT	6	2	RAT	n/a	0	7	[0, 0, 0]	n/a	0	1	0	n/a	n/a	0.0	0	0	0	PAL2	0	R1074M
1179.216	4.0	646080	TEST_PROBE	n/a	wordpools/wordpool_EN.txt	ROOT	RAT	6	2	RAT	n/a	0	7	[0, 0, 0]	n/a	0	1	0	n/a	n/a	0.0	0	0	0	PAL2	0	R1074M
1179.217	0.0	646080	REC_EVENT	0.0	n/a	ROOT	RAT	6	2	RAT	<>	0	7	[0, 0, 0]	n/a	0	1	0	n/a	n/a	0.0	0	0	0	PAL2	0	R1074M
1179.217	5.007	646080	REC_START	n/a	n/a	n/a	n/a	6	-999	n/a	n/a	0	7	[0, 0, 0]	n/a	0	1	0	n/a	n/a	0.0	0	0	0	PAL2	0	R1074M
1184.224	0.01	648584	REC_END	n/a	n/a	n/a	n/a	6	-999	n/a	n/a	-999	7	[0, 0, 0]	n/a	0	1	0	n/a	n/a	0.0	0	0	0	PAL2	0	R1074M
1184.234	0.25	648589	TEST_ORIENT	n/a	n/a	PANTS	PEA	1	3	PANTS	SHOES	0	7	[0, 0, 0]	n/a	0	1	0	n/a	n/a	0.0	0	0	0	PAL2	0	R1074M
1185.218	4.0	649081	TEST_PROBE	n/a	wordpools/wordpool_EN.txt	PANTS	PEA	1	3	PANTS	SHOES	0	7	[0, 0, 0]	n/a	0	1	0	n/a	n/a	0.0	0	0	0	PAL2	0	R1074M
1185.218	1.502	649081	REC_START	n/a	n/a	n/a	n/a	1	-999	n/a	SHOES	0	7	[0, 0, 0]	n/a	0	1	0	n/a	n/a	0.0	0	0	0	PAL2	0	R1074M
1186.72	3.515	649832	REC_EVENT	1.502	n/a	PANTS	PEA	1	3	PANTS	SHOES	0	7	[0, 0, 0]	n/a	0	1	0	n/a	n/a	0.0	0	0	0	PAL2	0	R1074M
1190.235	0.017	651589	REC_END	n/a	n/a	n/a	n/a	1	-999	n/a	n/a	-999	7	[0, 0, 0]	n/a	0	1	0	n/a	n/a	0.0	0	0	0	PAL2	0	R1074M
1190.252	0.25	651598	TEST_ORIENT	n/a	n/a	EGG	JUDGE	2	4	JUDGE	n/a	0	7	[0, 0, 0]	n/a	0	1	0	n/a	n/a	0.0	0	0	0	PAL2	0	R1074M
1191.219	4.0	652081	TEST_PROBE	n/a	wordpools/wordpool_EN.txt	EGG	JUDGE	2	4	JUDGE	n/a	0	7	[0, 0, 0]	n/a	0	1	0	n/a	n/a	0.0	0	0	0	PAL2	0	R1074M
1191.219	0.0	652081	REC_START	n/a	n/a	n/a	n/a	2	-999	n/a	n/a	0	7	[0, 0, 0]	n/a	0	1	0	n/a	n/a	0.0	0	0	0	PAL2	0	R1074M
1191.219	5.017	652081	REC_EVENT	0.0	n/a	EGG	JUDGE	2	4	JUDGE	<>	0	7	[0, 0, 0]	n/a	0	1	0	n/a	n/a	0.0	0	0	0	PAL2	0	R1074M
1196.236	0.017	654589	REC_END	n/a	n/a	n/a	n/a	2	-999	n/a	n/a	-999	7	[0, 0, 0]	n/a	0	1	0	n/a	n/a	0.0	0	0	0	PAL2	0	R1074M
1196.253	0.25	654598	TEST_ORIENT	n/a	n/a	STEAK	FLEA	3	5	FLEA	n/a	0	7	[0, 0, 0]	n/a	0	1	0	n/a	n/a	0.0	0	0	0	PAL2	0	R1074M
1197.203	4.0	655073	TEST_PROBE	n/a	wordpools/wordpool_EN.txt	STEAK	FLEA	3	5	FLEA	n/a	0	7	[0, 0, 0]	n/a	0	1	0	n/a	n/a	0.0	0	0	0	PAL2	0	R1074M
1197.204	0.0	655073	REC_EVENT	0.0	n/a	STEAK	FLEA	3	5	FLEA	<>	0	7	[0, 0, 0]	n/a	0	1	0	n/a	n/a	0.0	0	0	0	PAL2	0	R1074M
1197.204	5.007	655073	REC_START	n/a	n/a	n/a	n/a	3	-999	n/a	n/a	0	7	[0, 0, 0]	n/a	0	1	0	n/a	n/a	0.0	0	0	0	PAL2	0	R1074M
1202.211	0.01	657577	REC_END	n/a	n/a	n/a	n/a	3	-999	n/a	n/a	-999	7	[0, 0, 0]	n/a	0	1	0	n/a	n/a	0.0	0	0	0	PAL2	0	R1074M
1202.221	0.25	657582	TEST_ORIENT	n/a	n/a	HEART	LAMB	4	6	HEART	n/a	0	7	[0, 0, 0]	n/a	0	1	0	n/a	n/a	0.0	0	0	0	PAL2	0	R1074M
1203.221	4.0	658082	TEST_PROBE	n/a	wordpools/wordpool_EN.txt	HEART	LAMB	4	6	HEART	n/a	0	7	[0, 0, 0]	n/a	0	1	0	n/a	n/a	0.0	0	0	0	PAL2	0	R1074M
1203.222	0.0	658082	REC_START	n/a	n/a	n/a	n/a	4	-999	n/a	n/a	0	7	[0, 0, 0]	n/a	0	1	0	n/a	n/a	0.0	0	0	0	PAL2	0	R1074M
1203.222	5.007	658082	REC_EVENT	0.0	n/a	HEART	LAMB	4	6	HEART	<>	0	7	[0, 0, 0]	n/a	0	1	0	n/a	n/a	0.0	0	0	0	PAL2	0	R1074M
1208.229	307.721	660586	REC_END	n/a	n/a	n/a	n/a	4	-999	n/a	n/a	-999	7	[0, 0, 0]	n/a	0	1	0	n/a	n/a	0.0	0	0	0	PAL2	0	R1074M
1515.95	10.452	814438	ENCODING_START	n/a	n/a	n/a	n/a	0	-999	n/a	n/a	-999	8	[0, 0, 0]	n/a	0	0	0	n/a	n/a	0.0	0	0	0	PAL2	0	R1074M
1526.402	0.25	819663	STUDY_ORIENT	n/a	n/a	STICK	MOOSE	1	5	STICK	n/a	0	8	[0, 0, 0]	n/a	0	0	0	n/a	n/a	0.0	0	0	0	PAL2	0	R1074M
1527.386	4.0	820155	STUDY_PAIR	n/a	wordpools/wordpool_EN.txt	STICK	MOOSE	1	5	STICK	n/a	0	8	[0, 0, 0]	n/a	0	0	0	n/a	n/a	0.0	0	0	0	PAL2	0	R1074M
1532.42	0.25	822672	STUDY_ORIENT	n/a	n/a	BRICK	FARM	2	2	FARM	n/a	0	8	[0, 0, 0]	n/a	0	0	0	n/a	n/a	0.0	0	0	0	PAL2	0	R1074M
1533.387	4.0	823156	STUDY_PAIR	n/a	wordpools/wordpool_EN.txt	BRICK	FARM	2	2	FARM	n/a	0	8	[0, 0, 0]	n/a	0	0	0	n/a	n/a	0.0	0	0	0	PAL2	0	R1074M
1538.405	0.25	825665	STUDY_ORIENT	n/a	n/a	FOG	GRAPE	3	3	FOG	n/a	0	8	[0, 0, 0]	n/a	0	0	0	n/a	n/a	0.0	0	0	0	PAL2	0	R1074M
1539.188	4.0	826056	STUDY_PAIR	n/a	wordpools/wordpool_EN.txt	FOG	GRAPE	3	3	FOG	n/a	0	8	[0, 0, 0]	n/a	0	0	0	n/a	n/a	0.0	0	0	0	PAL2	0	R1074M
1544.206	0.25	828565	STUDY_ORIENT	n/a	n/a	FACE	RIB	4	6	FACE	n/a	0	8	[0, 0, 0]	n/a	0	0	0	n/a	n/a	0.0	0	0	0	PAL2	0	R1074M
1545.023	4.0	828973	STUDY_PAIR	n/a	wordpools/wordpool_EN.txt	FACE	RIB	4	6	FACE	n/a	0	8	[0, 0, 0]	n/a	0	0	0	n/a	n/a	0.0	0	0	0	PAL2	0	R1074M
1550.057	0.25	831490	STUDY_ORIENT	n/a	n/a	DART	CASH	5	1	CASH	n/a	0	8	[0, 0, 0]	n/a	0	0	0	n/a	n/a	0.0	0	0	0	PAL2	0	R1074M
1550.992	4.0	831958	STUDY_PAIR	n/a	wordpools/wordpool_EN.txt	DART	CASH	5	1	CASH	n/a	0	8	[0, 0, 0]	n/a	0	0	0	n/a	n/a	0.0	0	0	0	PAL2	0	R1074M
1556.025	0.25	834474	STUDY_ORIENT	n/a	n/a	PLANE	PURSE	6	4	PLANE	n/a	0	8	[0, 0, 0]	n/a	0	0	0	n/a	n/a	0.0	0	0	0	PAL2	0	R1074M
1556.893	4.0	834908	STUDY_PAIR	n/a	wordpools/wordpool_EN.txt	PLANE	PURSE	6	4	PLANE	n/a	0	8	[0, 0, 0]	n/a	0	0	0	n/a	n/a	0.0	0	0	0	PAL2	0	R1074M
1560.911	0.999	836917	START	n/a	n/a	n/a	n/a	-999	-999	n/a	n/a	-999	8	[-999, -999, -999]	n/a	0	0	0	n/a	n/a	0.0	0	0	0	PAL2	0	R1074M
1561.91	0.017	837416	MATH_START	n/a	n/a	n/a	n/a	-999	-999	n/a	n/a	-999	8	[0, 0, 0]	n/a	0	0	0	n/a	n/a	0.0	0	0	0	PAL2	0	R1074M
1561.927	11.869	837425	PROB	11.839	n/a	n/a	n/a	-999	-999	n/a	n/a	-999	8	[8, 2, 3]	13	0	0	0	n/a	n/a	0.0	0	0	0	PAL2	0	R1074M
1573.796	5.785	843359	PROB	5.754	n/a	n/a	n/a	-999	-999	n/a	n/a	-999	8	[4, 9, 3]	16	0	0	0	n/a	n/a	0.0	0	0	0	PAL2	0	R1074M
1579.581	7.856	846251	PROB	7.856	n/a	n/a	n/a	-999	-999	n/a	n/a	-999	8	[5, 9, 9]	23	0	0	0	n/a	n/a	0.0	0	0	0	PAL2	0	R1074M
1587.437	0.011	850179	STOP	n/a	n/a	n/a	n/a	-999	-999	n/a	n/a	-999	8	[-999, -999, -999]	n/a	0	0	0	n/a	n/a	0.0	0	0	0	PAL2	0	R1074M
1587.448	0.0	850185	MATH_END	n/a	n/a	n/a	n/a	-999	-999	n/a	n/a	-999	8	[0, 0, 0]	n/a	0	0	0	n/a	n/a	0.0	0	0	0	PAL2	0	R1074M
1587.448	0.016	850185	TEST_START	n/a	n/a	n/a	n/a	-999	-999	n/a	n/a	-999	8	[0, 0, 0]	n/a	0	0	0	n/a	n/a	0.0	0	0	0	PAL2	0	R1074M
1587.464	0.25	850193	TEST_ORIENT	n/a	n/a	DART	CASH	5	1	CASH	n/a	0	8	[0, 0, 0]	n/a	0	0	0	n/a	n/a	0.0	0	0	0	PAL2	0	R1074M
1588.431	4.0	850676	TEST_PROBE	n/a	wordpools/wordpool_EN.txt	DART	CASH	5	1	CASH	n/a	0	8	[0, 0, 0]	n/a	0	0	0	n/a	n/a	0.0	0	0	0	PAL2	0	R1074M
1588.432	0.0	850677	REC_START	n/a	n/a	n/a	n/a	5	-999	n/a	n/a	0	8	[0, 0, 0]	n/a	0	0	0	n/a	n/a	0.0	0	0	0	PAL2	0	R1074M
1588.432	5.008	850677	REC_EVENT	0.0	n/a	DART	CASH	5	1	CASH	<>	0	8	[0, 0, 0]	n/a	0	0	0	n/a	n/a	0.0	0	0	0	PAL2	0	R1074M
1593.44	0.009	853181	REC_END	n/a	n/a	n/a	n/a	5	-999	n/a	n/a	-999	8	[0, 0, 0]	n/a	0	0	0	n/a	n/a	0.0	0	0	0	PAL2	0	R1074M
1593.449	0.25	853185	TEST_ORIENT	n/a	n/a	BRICK	FARM	2	2	FARM	n/a	0	8	[0, 0, 0]	n/a	0	0	0	n/a	n/a	0.0	0	0	0	PAL2	0	R1074M
1594.449	4.0	853685	TEST_PROBE	n/a	wordpools/wordpool_EN.txt	BRICK	FARM	2	2	FARM	n/a	0	8	[0, 0, 0]	n/a	0	0	0	n/a	n/a	0.0	0	0	0	PAL2	0	R1074M
1594.45	0.0	853686	REC_EVENT	0.0	n/a	BRICK	FARM	2	2	FARM	<>	0	8	[0, 0, 0]	n/a	0	0	0	n/a	n/a	0.0	0	0	0	PAL2	0	R1074M
1594.45	5.007	853686	REC_START	n/a	n/a	n/a	n/a	2	-999	n/a	n/a	0	8	[0, 0, 0]	n/a	0	0	0	n/a	n/a	0.0	0	0	0	PAL2	0	R1074M
1599.457	0.01	856189	REC_END	n/a	n/a	n/a	n/a	2	-999	n/a	n/a	-999	8	[0, 0, 0]	n/a	0	0	0	n/a	n/a	0.0	0	0	0	PAL2	0	R1074M
1599.467	0.25	856194	TEST_ORIENT	n/a	n/a	FOG	GRAPE	3	3	FOG	n/a	0	8	[0, 0, 0]	n/a	0	0	0	n/a	n/a	0.0	0	0	0	PAL2	0	R1074M
1600.284	4.0	856602	TEST_PROBE	n/a	wordpools/wordpool_EN.txt	FOG	GRAPE	3	3	FOG	n/a	0	8	[0, 0, 0]	n/a	0	0	0	n/a	n/a	0.0	0	0	0	PAL2	0	R1074M
1600.284	0.0	856602	REC_START	n/a	n/a	n/a	n/a	3	-999	n/a	n/a	0	8	[0, 0, 0]	n/a	0	0	0	n/a	n/a	0.0	0	0	0	PAL2	0	R1074M
1600.284	5.017	856602	REC_EVENT	0.0	n/a	FOG	GRAPE	3	3	FOG	<>	0	8	[0, 0, 0]	n/a	0	0	0	n/a	n/a	0.0	0	0	0	PAL2	0	R1074M
1605.301	0.017	859111	REC_END	n/a	n/a	n/a	n/a	3	-999	n/a	n/a	-999	8	[0, 0, 0]	n/a	0	0	0	n/a	n/a	0.0	0	0	0	PAL2	0	R1074M
1605.318	0.25	859119	TEST_ORIENT	n/a	n/a	PLANE	PURSE	6	4	PLANE	n/a	0	8	[0, 0, 0]	n/a	0	0	0	n/a	n/a	0.0	0	0	0	PAL2	0	R1074M
1606.285	4.0	859603	TEST_PROBE	n/a	wordpools/wordpool_EN.txt	PLANE	PURSE	6	4	PLANE	n/a	0	8	[0, 0, 0]	n/a	0	0	0	n/a	n/a	0.0	0	0	0	PAL2	0	R1074M
1606.286	0.0	859603	REC_START	n/a	n/a	n/a	n/a	6	-999	n/a	n/a	0	8	[0, 0, 0]	n/a	0	0	0	n/a	n/a	0.0	0	0	0	PAL2	0	R1074M
1606.286	5.016	859603	REC_EVENT	0.0	n/a	PLANE	PURSE	6	4	PLANE	<>	0	8	[0, 0, 0]	n/a	0	0	0	n/a	n/a	0.0	0	0	0	PAL2	0	R1074M
1611.302	0.017	862111	REC_END	n/a	n/a	n/a	n/a	6	-999	n/a	n/a	-999	8	[0, 0, 0]	n/a	0	0	0	n/a	n/a	0.0	0	0	0	PAL2	0	R1074M
1611.319	0.25	862120	TEST_ORIENT	n/a	n/a	STICK	MOOSE	1	5	STICK	n/a	0	8	[0, 0, 0]	n/a	0	0	0	n/a	n/a	0.0	0	0	0	PAL2	0	R1074M
1612.186	4.0	862553	TEST_PROBE	n/a	wordpools/wordpool_EN.txt	STICK	MOOSE	1	5	STICK	n/a	0	8	[0, 0, 0]	n/a	0	0	0	n/a	n/a	0.0	0	0	0	PAL2	0	R1074M
1612.187	0.0	862554	REC_EVENT	0.0	n/a	STICK	MOOSE	1	5	STICK	<>	0	8	[0, 0, 0]	n/a	0	0	0	n/a	n/a	0.0	0	0	0	PAL2	0	R1074M
1612.187	5.025	862554	REC_START	n/a	n/a	n/a	n/a	1	-999	n/a	n/a	0	8	[0, 0, 0]	n/a	0	0	0	n/a	n/a	0.0	0	0	0	PAL2	0	R1074M
1617.212	0.008	865066	REC_END	n/a	n/a	n/a	n/a	1	-999	n/a	n/a	-999	8	[0, 0, 0]	n/a	0	0	0	n/a	n/a	0.0	0	0	0	PAL2	0	R1074M
1617.22	0.25	865070	TEST_ORIENT	n/a	n/a	FACE	RIB	4	6	FACE	n/a	0	8	[0, 0, 0]	n/a	0	0	0	n/a	n/a	0.0	0	0	0	PAL2	0	R1074M
1618.137	4.0	865528	TEST_PROBE	n/a	wordpools/wordpool_EN.txt	FACE	RIB	4	6	FACE	n/a	0	8	[0, 0, 0]	n/a	0	0	0	n/a	n/a	0.0	0	0	0	PAL2	0	R1074M
1618.138	0.0	865529	REC_START	n/a	n/a	n/a	n/a	4	-999	n/a	n/a	0	8	[0, 0, 0]	n/a	0	0	0	n/a	n/a	0.0	0	0	0	PAL2	0	R1074M
1618.138	5.007	865529	REC_EVENT	0.0	n/a	FACE	RIB	4	6	FACE	<>	0	8	[0, 0, 0]	n/a	0	0	0	n/a	n/a	0.0	0	0	0	PAL2	0	R1074M
1623.145	20.493	868032	REC_END	n/a	n/a	n/a	n/a	4	-999	n/a	n/a	-999	8	[0, 0, 0]	n/a	0	0	0	n/a	n/a	0.0	0	0	0	PAL2	0	R1074M
1643.638	10.44	878278	ENCODING_START	n/a	n/a	n/a	n/a	0	-999	n/a	n/a	-999	9	[0, 0, 0]	n/a	0	1	0	n/a	n/a	0.0	0	0	0	PAL2	0	R1074M
1654.078	0.25	883498	STUDY_ORIENT	n/a	n/a	HORSE	LAMP	1	5	LAMP	n/a	0	9	[0, 0, 0]	n/a	0	1	0	n/a	n/a	0.0	0	0	0	PAL2	0	R1074M
1655.095	4.0	884006	STUDY_PAIR	n/a	wordpools/wordpool_EN.txt	HORSE	LAMP	1	5	LAMP	n/a	0	9	[0, 0, 0]	n/a	0	1	0	n/a	n/a	0.0	0	0	0	PAL2	0	R1074M
1660.129	0.25	886523	STUDY_ORIENT	n/a	n/a	WHEEL	SHOE	2	6	SHOE	n/a	0	9	[0, 0, 0]	n/a	0	1	0	n/a	n/a	0.0	0	0	0	PAL2	0	R1074M
1661.046	4.0	886982	STUDY_PAIR	n/a	wordpools/wordpool_EN.txt	WHEEL	SHOE	2	6	SHOE	n/a	0	9	[0, 0, 0]	n/a	0	1	0	n/a	n/a	0.0	0	0	0	PAL2	0	R1074M
1666.08	0.25	889499	STUDY_ORIENT	n/a	n/a	BLOOM	ZOO	3	3	ZOO	n/a	0	9	[0, 0, 0]	n/a	0	1	0	n/a	n/a	0.0	0	0	0	PAL2	0	R1074M
1666.948	4.0	889933	STUDY_PAIR	n/a	wordpools/wordpool_EN.txt	BLOOM	ZOO	3	3	ZOO	n/a	0	9	[0, 0, 0]	n/a	0	1	0	n/a	n/a	0.0	0	0	0	PAL2	0	R1074M
1671.982	0.25	892449	STUDY_ORIENT	n/a	n/a	WOLF	FUR	4	2	FUR	n/a	0	9	[0, 0, 0]	n/a	0	1	0	n/a	n/a	0.0	0	0	0	PAL2	0	R1074M
1672.799	4.0	892858	STUDY_PAIR	n/a	wordpools/wordpool_EN.txt	WOLF	FUR	4	2	FUR	n/a	0	9	[0, 0, 0]	n/a	0	1	0	n/a	n/a	0.0	0	0	0	PAL2	0	R1074M
1677.817	0.25	895367	STUDY_ORIENT	n/a	n/a	STAIR	NAIL	5	1	NAIL	n/a	0	9	[0, 0, 0]	n/a	0	1	0	n/a	n/a	0.0	0	0	0	PAL2	0	R1074M
1678.817	4.0	895867	STUDY_PAIR	n/a	wordpools/wordpool_EN.txt	STAIR	NAIL	5	1	NAIL	n/a	0	9	[0, 0, 0]	n/a	0	1	0	n/a	n/a	0.0	0	0	0	PAL2	0	R1074M
1683.834	0.25	898375	STUDY_ORIENT	n/a	n/a	INK	BIRD	6	4	BIRD	n/a	0	9	[0, 0, 0]	n/a	0	1	0	n/a	n/a	0.0	0	0	0	PAL2	0	R1074M
1684.735	4.0	898826	STUDY_PAIR	n/a	wordpools/wordpool_EN.txt	INK	BIRD	6	4	BIRD	n/a	0	9	[0, 0, 0]	n/a	0	1	0	n/a	n/a	0.0	0	0	0	PAL2	0	R1074M
1688.753	1.0	900834	START	n/a	n/a	n/a	n/a	-999	-999	n/a	n/a	-999	9	[-999, -999, -999]	n/a	0	1	0	n/a	n/a	0.0	0	0	0	PAL2	0	R1074M
1689.753	0.016	901334	MATH_START	n/a	n/a	n/a	n/a	-999	-999	n/a	n/a	-999	9	[0, 0, 0]	n/a	0	1	0	n/a	n/a	0.0	0	0	0	PAL2	0	R1074M
1689.769	5.185	901342	PROB	5.165	n/a	n/a	n/a	-999	-999	n/a	n/a	-999	9	[6, 5, 1]	12	0	1	0	n/a	n/a	0.0	0	0	0	PAL2	0	R1074M
1694.954	6.551	903935	PROB	6.515	n/a	n/a	n/a	-999	-999	n/a	n/a	-999	9	[7, 7, 6]	20	0	1	0	n/a	n/a	0.0	0	0	0	PAL2	0	R1074M
1701.505	7.62	907210	PROB	7.62	n/a	n/a	n/a	-999	-999	n/a	n/a	-999	9	[1, 7, 1]	9	0	1	0	n/a	n/a	0.0	0	0	0	PAL2	0	R1074M
1709.125	0.014	911020	STOP	n/a	n/a	n/a	n/a	-999	-999	n/a	n/a	-999	9	[-999, -999, -999]	n/a	0	1	0	n/a	n/a	0.0	0	0	0	PAL2	0	R1074M
1709.139	0.0	911027	MATH_END	n/a	n/a	n/a	n/a	-999	-999	n/a	n/a	-999	9	[0, 0, 0]	n/a	0	1	0	n/a	n/a	0.0	0	0	0	PAL2	0	R1074M
1709.139	0.017	911027	TEST_START	n/a	n/a	n/a	n/a	-999	-999	n/a	n/a	-999	9	[0, 0, 0]	n/a	0	1	0	n/a	n/a	0.0	0	0	0	PAL2	0	R1074M
1709.156	0.25	911035	TEST_ORIENT	n/a	n/a	STAIR	NAIL	5	1	NAIL	n/a	0	9	[0, 0, 0]	n/a	0	1	0	n/a	n/a	0.0	0	0	0	PAL2	0	R1074M
1709.816	4.6	911365	STIM_ON	n/a	n/a	STAIR	NAIL	5	1	NAIL	n/a	0	9	[0, 0, 0]	n/a	1	1	4600	LW1	LW2	1000.0	50	230	300	PAL2	0	R1074M
1710.022	4.0	911468	TEST_PROBE	n/a	wordpools/wordpool_EN.txt	STAIR	NAIL	5	1	NAIL	n/a	0	9	[0, 0, 0]	n/a	1	1	4600	LW1	LW2	1000.0	50	230	300	PAL2	0	R1074M
1710.023	0.0	911469	REC_START	n/a	n/a	n/a	n/a	5	-999	n/a	n/a	0	9	[0, 0, 0]	n/a	1	1	4600	LW1	LW2	1000.0	50	230	300	PAL2	0	R1074M
1710.023	5.008	911469	REC_EVENT	0.0	n/a	STAIR	NAIL	5	1	NAIL	<>	0	9	[0, 0, 0]	n/a	1	1	4600	LW1	LW2	1000.0	50	230	300	PAL2	0	R1074M
1715.031	0.009	913973	REC_END	n/a	n/a	n/a	n/a	5	-999	n/a	n/a	-999	9	[0, 0, 0]	n/a	0	1	0	n/a	n/a	0.0	0	0	0	PAL2	0	R1074M
1715.04	0.25	913977	TEST_ORIENT	n/a	n/a	WOLF	FUR	4	2	FUR	n/a	0	9	[0, 0, 0]	n/a	0	1	0	n/a	n/a	0.0	0	0	0	PAL2	0	R1074M
1715.908	4.0	914411	TEST_PROBE	n/a	wordpools/wordpool_EN.txt	WOLF	FUR	4	2	FUR	n/a	0	9	[0, 0, 0]	n/a	0	1	0	n/a	n/a	0.0	0	0	0	PAL2	0	R1074M
1715.909	0.0	914412	REC_START	n/a	n/a	n/a	n/a	4	-999	n/a	n/a	0	9	[0, 0, 0]	n/a	0	1	0	n/a	n/a	0.0	0	0	0	PAL2	0	R1074M
1715.909	5.016	914412	REC_EVENT	0.0	n/a	WOLF	FUR	4	2	FUR	<>	0	9	[0, 0, 0]	n/a	0	1	0	n/a	n/a	0.0	0	0	0	PAL2	0	R1074M
1720.925	0.017	916920	REC_END	n/a	n/a	n/a	n/a	4	-999	n/a	n/a	-999	9	[0, 0, 0]	n/a	0	1	0	n/a	n/a	0.0	0	0	0	PAL2	0	R1074M
1720.942	0.25	916928	TEST_ORIENT	n/a	n/a	BLOOM	ZOO	3	3	ZOO	n/a	0	9	[0, 0, 0]	n/a	0	1	0	n/a	n/a	0.0	0	0	0	PAL2	0	R1074M
1721.586	4.6	917250	STIM_ON	n/a	n/a	BLOOM	ZOO	3	3	ZOO	n/a	0	9	[0, 0, 0]	n/a	1	1	4600	LW1	LW2	1000.0	50	230	300	PAL2	0	R1074M
1721.792	4.0	917353	TEST_PROBE	n/a	wordpools/wordpool_EN.txt	BLOOM	ZOO	3	3	ZOO	n/a	0	9	[0, 0, 0]	n/a	1	1	4600	LW1	LW2	1000.0	50	230	300	PAL2	0	R1074M
1721.793	0.0	917354	REC_START	n/a	n/a	n/a	n/a	3	-999	n/a	n/a	0	9	[0, 0, 0]	n/a	1	1	4600	LW1	LW2	1000.0	50	230	300	PAL2	0	R1074M
1721.793	5.007	917354	REC_EVENT	0.0	n/a	BLOOM	ZOO	3	3	ZOO	<>	0	9	[0, 0, 0]	n/a	1	1	4600	LW1	LW2	1000.0	50	230	300	PAL2	0	R1074M
1726.8	0.01	919857	REC_END	n/a	n/a	n/a	n/a	3	-999	n/a	n/a	-999	9	[0, 0, 0]	n/a	0	1	0	n/a	n/a	0.0	0	0	0	PAL2	0	R1074M
1726.81	0.25	919862	TEST_ORIENT	n/a	n/a	INK	BIRD	6	4	BIRD	n/a	0	9	[0, 0, 0]	n/a	0	1	0	n/a	n/a	0.0	0	0	0	PAL2	0	R1074M
1727.76	4.0	920337	TEST_PROBE	n/a	wordpools/wordpool_EN.txt	INK	BIRD	6	4	BIRD	n/a	0	9	[0, 0, 0]	n/a	0	1	0	n/a	n/a	0.0	0	0	0	PAL2	0	R1074M
1727.761	0.0	920337	REC_START	n/a	n/a	n/a	n/a	6	-999	n/a	n/a	0	9	[0, 0, 0]	n/a	0	1	0	n/a	n/a	0.0	0	0	0	PAL2	0	R1074M
1727.761	5.017	920337	REC_EVENT	0.0	n/a	INK	BIRD	6	4	BIRD	<>	0	9	[0, 0, 0]	n/a	0	1	0	n/a	n/a	0.0	0	0	0	PAL2	0	R1074M
1732.778	0.016	922846	REC_END	n/a	n/a	n/a	n/a	6	-999	n/a	n/a	-999	9	[0, 0, 0]	n/a	0	1	0	n/a	n/a	0.0	0	0	0	PAL2	0	R1074M
1732.794	0.25	922854	TEST_ORIENT	n/a	n/a	HORSE	LAMP	1	5	LAMP	n/a	0	9	[0, 0, 0]	n/a	0	1	0	n/a	n/a	0.0	0	0	0	PAL2	0	R1074M
1733.585	4.6	923249	STIM_ON	n/a	n/a	HORSE	LAMP	1	5	LAMP	n/a	0	9	[0, 0, 0]	n/a	1	1	4600	LW1	LW2	1000.0	50	230	300	PAL2	0	R1074M
1733.795	4.0	923354	TEST_PROBE	n/a	wordpools/wordpool_EN.txt	HORSE	LAMP	1	5	LAMP	n/a	0	9	[0, 0, 0]	n/a	1	1	4600	LW1	LW2	1000.0	50	230	300	PAL2	0	R1074M
1733.795	0.0	923354	REC_START	n/a	n/a	n/a	n/a	1	-999	n/a	n/a	0	9	[0, 0, 0]	n/a	1	1	4600	LW1	LW2	1000.0	50	230	300	PAL2	0	R1074M
1733.795	5.017	923354	REC_EVENT	0.0	n/a	HORSE	LAMP	1	5	LAMP	<>	0	9	[0, 0, 0]	n/a	1	1	4600	LW1	LW2	1000.0	50	230	300	PAL2	0	R1074M
1738.812	0.017	925863	REC_END	n/a	n/a	n/a	n/a	1	-999	n/a	n/a	-999	9	[0, 0, 0]	n/a	0	1	0	n/a	n/a	0.0	0	0	0	PAL2	0	R1074M
1738.829	0.25	925871	TEST_ORIENT	n/a	n/a	WHEEL	SHOE	2	6	SHOE	n/a	0	9	[0, 0, 0]	n/a	0	1	0	n/a	n/a	0.0	0	0	0	PAL2	0	R1074M
1739.763	4.0	926338	TEST_PROBE	n/a	wordpools/wordpool_EN.txt	WHEEL	SHOE	2	6	SHOE	n/a	0	9	[0, 0, 0]	n/a	0	1	0	n/a	n/a	0.0	0	0	0	PAL2	0	R1074M
1739.763	0.0	926338	REC_START	n/a	n/a	n/a	n/a	2	-999	n/a	n/a	0	9	[0, 0, 0]	n/a	0	1	0	n/a	n/a	0.0	0	0	0	PAL2	0	R1074M
1739.763	5.017	926338	REC_EVENT	0.0	n/a	WHEEL	SHOE	2	6	SHOE	<>	0	9	[0, 0, 0]	n/a	0	1	0	n/a	n/a	0.0	0	0	0	PAL2	0	R1074M
1744.78	38.585	928846	REC_END	n/a	n/a	n/a	n/a	2	-999	n/a	n/a	-999	9	[0, 0, 0]	n/a	0	1	0	n/a	n/a	0.0	0	0	0	PAL2	0	R1074M
1783.365	10.442	948138	ENCODING_START	n/a	n/a	n/a	n/a	0	-999	n/a	n/a	-999	10	[0, 0, 0]	n/a	0	1	0	n/a	n/a	0.0	0	0	0	PAL2	0	R1074M
1793.807	0.25	953359	STUDY_ORIENT	n/a	n/a	TOAD	SKY	1	1	TOAD	n/a	0	10	[0, 0, 0]	n/a	0	1	0	n/a	n/a	0.0	0	0	0	PAL2	0	R1074M
1794.69	4.0	953800	STUDY_PAIR	n/a	wordpools/wordpool_EN.txt	TOAD	SKY	1	1	TOAD	n/a	0	10	[0, 0, 0]	n/a	0	1	0	n/a	n/a	0.0	0	0	0	PAL2	0	R1074M
1799.708	0.25	956309	STUDY_ORIENT	n/a	n/a	FLAG	BAT	2	6	FLAG	STRING	0	10	[0, 0, 0]	n/a	0	1	0	n/a	n/a	0.0	0	0	0	PAL2	0	R1074M
1800.325	4.6	956617	STIM_ON	n/a	n/a	FLAG	BAT	2	6	FLAG	STRING	0	10	[0, 0, 0]	n/a	1	1	4600	LW1	LW2	1000.0	50	230	300	PAL2	0	R1074M
1800.541	4.0	956725	STUDY_PAIR	n/a	wordpools/wordpool_EN.txt	FLAG	BAT	2	6	FLAG	STRING	0	10	[0, 0, 0]	n/a	1	1	4600	LW1	LW2	1000.0	50	230	300	PAL2	0	R1074M
1805.559	0.25	959234	STUDY_ORIENT	n/a	n/a	DOOR	STRING	3	5	DOOR	n/a	0	10	[0, 0, 0]	n/a	0	1	0	n/a	n/a	0.0	0	0	0	PAL2	0	R1074M
1806.576	4.0	959743	STUDY_PAIR	n/a	wordpools/wordpool_EN.txt	DOOR	STRING	3	5	DOOR	n/a	0	10	[0, 0, 0]	n/a	0	1	0	n/a	n/a	0.0	0	0	0	PAL2	0	R1074M
1811.61	0.25	962260	STUDY_ORIENT	n/a	n/a	SLEEVE	APE	4	4	SLEEVE	n/a	0	10	[0, 0, 0]	n/a	0	1	0	n/a	n/a	0.0	0	0	0	PAL2	0	R1074M
1812.357	4.6	962633	STIM_ON	n/a	n/a	SLEEVE	APE	4	4	SLEEVE	n/a	0	10	[0, 0, 0]	n/a	1	1	4600	LW1	LW2	1000.0	50	230	300	PAL2	0	R1074M
1812.56	4.0	962735	STUDY_PAIR	n/a	wordpools/wordpool_EN.txt	SLEEVE	APE	4	4	SLEEVE	n/a	0	10	[0, 0, 0]	n/a	1	1	4600	LW1	LW2	1000.0	50	230	300	PAL2	0	R1074M
1817.578	0.25	965243	STUDY_ORIENT	n/a	n/a	BEAN	CHAIR	5	3	CHAIR	n/a	0	10	[0, 0, 0]	n/a	0	1	0	n/a	n/a	0.0	0	0	0	PAL2	0	R1074M
1818.494	4.0	965701	STUDY_PAIR	n/a	wordpools/wordpool_EN.txt	BEAN	CHAIR	5	3	CHAIR	n/a	0	10	[0, 0, 0]	n/a	0	1	0	n/a	n/a	0.0	0	0	0	PAL2	0	R1074M
1823.529	0.25	968219	STUDY_ORIENT	n/a	n/a	HAWK	BREAD	6	2	BREAD	n/a	0	10	[0, 0, 0]	n/a	0	1	0	n/a	n/a	0.0	0	0	0	PAL2	0	R1074M
1824.113	4.6	968511	STIM_ON	n/a	n/a	HAWK	BREAD	6	2	BREAD	n/a	0	10	[0, 0, 0]	n/a	1	1	4600	LW1	LW2	1000.0	50	230	300	PAL2	0	R1074M
1824.328	4.0	968618	STUDY_PAIR	n/a	wordpools/wordpool_EN.txt	HAWK	BREAD	6	2	BREAD	n/a	0	10	[0, 0, 0]	n/a	1	1	4600	LW1	LW2	1000.0	50	230	300	PAL2	0	R1074M
1828.329	1.0	970619	START	n/a	n/a	n/a	n/a	-999	-999	n/a	n/a	-999	10	[-999, -999, -999]	n/a	0	1	0	n/a	n/a	0.0	0	0	0	PAL2	0	R1074M
1829.329	0.017	971119	MATH_START	n/a	n/a	n/a	n/a	-999	-999	n/a	n/a	-999	10	[0, 0, 0]	n/a	0	1	0	n/a	n/a	0.0	0	0	0	PAL2	0	R1074M
1829.346	5.319	971127	PROB	5.3	n/a	n/a	n/a	-999	-999	n/a	n/a	-999	10	[1, 7, 4]	12	0	1	0	n/a	n/a	0.0	0	0	0	PAL2	0	R1074M
1834.665	4.516	973786	PROB	4.484	n/a	n/a	n/a	-999	-999	n/a	n/a	-999	10	[1, 4, 5]	10	0	1	0	n/a	n/a	0.0	0	0	0	PAL2	0	R1074M
1839.181	3.868	976044	PROB	3.84	n/a	n/a	n/a	-999	-999	n/a	n/a	-999	10	[2, 8, 2]	12	0	1	0	n/a	n/a	0.0	0	0	0	PAL2	0	R1074M
1843.049	4.618	977978	PROB	4.589	n/a	n/a	n/a	-999	-999	n/a	n/a	-999	10	[4, 9, 1]	14	0	1	0	n/a	n/a	0.0	0	0	0	PAL2	0	R1074M
1847.667	7.506	980287	PROB	7.506	n/a	n/a	n/a	-999	-999	n/a	n/a	-999	10	[8, 6, 2]	16	0	1	0	n/a	n/a	0.0	0	0	0	PAL2	0	R1074M
1855.173	0.012	984040	STOP	n/a	n/a	n/a	n/a	-999	-999	n/a	n/a	-999	10	[-999, -999, -999]	n/a	0	1	0	n/a	n/a	0.0	0	0	0	PAL2	0	R1074M
1855.185	0.0	984046	MATH_END	n/a	n/a	n/a	n/a	-999	-999	n/a	n/a	-999	10	[0, 0, 0]	n/a	0	1	0	n/a	n/a	0.0	0	0	0	PAL2	0	R1074M
1855.185	0.016	984046	TEST_START	n/a	n/a	n/a	n/a	-999	-999	n/a	n/a	-999	10	[0, 0, 0]	n/a	0	1	0	n/a	n/a	0.0	0	0	0	PAL2	0	R1074M
1855.201	0.25	984054	TEST_ORIENT	n/a	n/a	TOAD	SKY	1	1	TOAD	n/a	0	10	[0, 0, 0]	n/a	0	1	0	n/a	n/a	0.0	0	0	0	PAL2	0	R1074M
1856.118	4.0	984512	TEST_PROBE	n/a	wordpools/wordpool_EN.txt	TOAD	SKY	1	1	TOAD	n/a	0	10	[0, 0, 0]	n/a	0	1	0	n/a	n/a	0.0	0	0	0	PAL2	0	R1074M
1856.119	0.0	984513	REC_START	n/a	n/a	n/a	n/a	1	-999	n/a	n/a	0	10	[0, 0, 0]	n/a	0	1	0	n/a	n/a	0.0	0	0	0	PAL2	0	R1074M
1856.119	5.007	984513	REC_EVENT	0.0	n/a	TOAD	SKY	1	1	TOAD	<>	0	10	[0, 0, 0]	n/a	0	1	0	n/a	n/a	0.0	0	0	0	PAL2	0	R1074M
1861.126	0.01	987016	REC_END	n/a	n/a	n/a	n/a	1	-999	n/a	n/a	-999	10	[0, 0, 0]	n/a	0	1	0	n/a	n/a	0.0	0	0	0	PAL2	0	R1074M
1861.136	0.25	987021	TEST_ORIENT	n/a	n/a	HAWK	BREAD	6	2	BREAD	n/a	0	10	[0, 0, 0]	n/a	0	1	0	n/a	n/a	0.0	0	0	0	PAL2	0	R1074M
1862.136	4.0	987521	TEST_PROBE	n/a	wordpools/wordpool_EN.txt	HAWK	BREAD	6	2	BREAD	n/a	0	10	[0, 0, 0]	n/a	0	1	0	n/a	n/a	0.0	0	0	0	PAL2	0	R1074M
1862.136	0.0	987521	REC_START	n/a	n/a	n/a	n/a	6	-999	n/a	n/a	0	10	[0, 0, 0]	n/a	0	1	0	n/a	n/a	0.0	0	0	0	PAL2	0	R1074M
1862.136	5.017	987521	REC_EVENT	0.0	n/a	HAWK	BREAD	6	2	BREAD	<>	0	10	[0, 0, 0]	n/a	0	1	0	n/a	n/a	0.0	0	0	0	PAL2	0	R1074M
1867.153	0.017	990030	REC_END	n/a	n/a	n/a	n/a	6	-999	n/a	n/a	-999	10	[0, 0, 0]	n/a	0	1	0	n/a	n/a	0.0	0	0	0	PAL2	0	R1074M
1867.17	0.25	990038	TEST_ORIENT	n/a	n/a	BEAN	CHAIR	5	3	CHAIR	n/a	0	10	[0, 0, 0]	n/a	0	1	0	n/a	n/a	0.0	0	0	0	PAL2	0	R1074M
1867.972	4.0	990439	TEST_PROBE	n/a	wordpools/wordpool_EN.txt	BEAN	CHAIR	5	3	CHAIR	n/a	0	10	[0, 0, 0]	n/a	0	1	0	n/a	n/a	0.0	0	0	0	PAL2	0	R1074M
1867.972	0.0	990439	REC_START	n/a	n/a	n/a	n/a	5	-999	n/a	n/a	0	10	[0, 0, 0]	n/a	0	1	0	n/a	n/a	0.0	0	0	0	PAL2	0	R1074M
1867.972	5.017	990439	REC_EVENT	0.0	n/a	BEAN	CHAIR	5	3	CHAIR	<>	0	10	[0, 0, 0]	n/a	0	1	0	n/a	n/a	0.0	0	0	0	PAL2	0	R1074M
1872.989	0.017	992947	REC_END	n/a	n/a	n/a	n/a	5	-999	n/a	n/a	-999	10	[0, 0, 0]	n/a	0	1	0	n/a	n/a	0.0	0	0	0	PAL2	0	R1074M
1873.006	0.25	992956	TEST_ORIENT	n/a	n/a	SLEEVE	APE	4	4	SLEEVE	n/a	0	10	[0, 0, 0]	n/a	0	1	0	n/a	n/a	0.0	0	0	0	PAL2	0	R1074M
1873.956	4.0	993431	TEST_PROBE	n/a	wordpools/wordpool_EN.txt	SLEEVE	APE	4	4	SLEEVE	n/a	0	10	[0, 0, 0]	n/a	0	1	0	n/a	n/a	0.0	0	0	0	PAL2	0	R1074M
1873.957	0.0	993431	REC_START	n/a	n/a	n/a	n/a	4	-999	n/a	n/a	0	10	[0, 0, 0]	n/a	0	1	0	n/a	n/a	0.0	0	0	0	PAL2	0	R1074M
1873.957	5.024	993431	REC_EVENT	0.0	n/a	SLEEVE	APE	4	4	SLEEVE	<>	0	10	[0, 0, 0]	n/a	0	1	0	n/a	n/a	0.0	0	0	0	PAL2	0	R1074M
1878.981	0.009	995943	REC_END	n/a	n/a	n/a	n/a	4	-999	n/a	n/a	-999	10	[0, 0, 0]	n/a	0	1	0	n/a	n/a	0.0	0	0	0	PAL2	0	R1074M
1878.99	0.25	995948	TEST_ORIENT	n/a	n/a	DOOR	STRING	3	5	DOOR	n/a	0	10	[0, 0, 0]	n/a	0	1	0	n/a	n/a	0.0	0	0	0	PAL2	0	R1074M
1879.991	4.0	996448	TEST_PROBE	n/a	wordpools/wordpool_EN.txt	DOOR	STRING	3	5	DOOR	n/a	0	10	[0, 0, 0]	n/a	0	1	0	n/a	n/a	0.0	0	0	0	PAL2	0	R1074M
1879.991	0.0	996448	REC_START	n/a	n/a	n/a	n/a	3	-999	n/a	n/a	0	10	[0, 0, 0]	n/a	0	1	0	n/a	n/a	0.0	0	0	0	PAL2	0	R1074M
1879.991	5.017	996448	REC_EVENT	0.0	n/a	DOOR	STRING	3	5	DOOR	<>	0	10	[0, 0, 0]	n/a	0	1	0	n/a	n/a	0.0	0	0	0	PAL2	0	R1074M
1885.008	0.016	998957	REC_END	n/a	n/a	n/a	n/a	3	-999	n/a	n/a	-999	10	[0, 0, 0]	n/a	0	1	0	n/a	n/a	0.0	0	0	0	PAL2	0	R1074M
1885.024	0.25	998965	TEST_ORIENT	n/a	n/a	FLAG	BAT	2	6	FLAG	STRING	0	10	[0, 0, 0]	n/a	0	1	0	n/a	n/a	0.0	0	0	0	PAL2	0	R1074M
1885.892	4.0	999399	TEST_PROBE	n/a	wordpools/wordpool_EN.txt	FLAG	BAT	2	6	FLAG	STRING	0	10	[0, 0, 0]	n/a	0	1	0	n/a	n/a	0.0	0	0	0	PAL2	0	R1074M
1885.892	1.789	999399	REC_START	n/a	n/a	n/a	n/a	2	-999	n/a	STRING	0	10	[0, 0, 0]	n/a	0	1	0	n/a	n/a	0.0	0	0	0	PAL2	0	R1074M
1887.681	3.228	1000293	REC_EVENT	1.789	n/a	FLAG	BAT	2	6	FLAG	STRING	0	10	[0, 0, 0]	n/a	0	1	0	n/a	n/a	0.0	0	0	0	PAL2	0	R1074M
1890.909	13.152	1001907	REC_END	n/a	n/a	n/a	n/a	2	-999	n/a	n/a	-999	10	[0, 0, 0]	n/a	0	1	0	n/a	n/a	0.0	0	0	0	PAL2	0	R1074M
1904.061	10.453	1008483	ENCODING_START	n/a	n/a	n/a	n/a	0	-999	n/a	n/a	-999	11	[0, 0, 0]	n/a	0	1	0	n/a	n/a	0.0	0	0	0	PAL2	0	R1074M
1914.514	0.25	1013709	STUDY_ORIENT	n/a	n/a	SHIELD	CROW	1	3	SHIELD	n/a	0	11	[0, 0, 0]	n/a	0	1	0	n/a	n/a	0.0	0	0	0	PAL2	0	R1074M
1915.313	4.0	1014108	STUDY_PAIR	n/a	wordpools/wordpool_EN.txt	SHIELD	CROW	1	3	SHIELD	n/a	0	11	[0, 0, 0]	n/a	0	1	0	n/a	n/a	0.0	0	0	0	PAL2	0	R1074M
1920.331	0.25	1016617	STUDY_ORIENT	n/a	n/a	SOAP	SEAT	2	6	SOAP	n/a	0	11	[0, 0, 0]	n/a	0	1	0	n/a	n/a	0.0	0	0	0	PAL2	0	R1074M
1921.248	4.0	1017076	STUDY_PAIR	n/a	wordpools/wordpool_EN.txt	SOAP	SEAT	2	6	SOAP	n/a	0	11	[0, 0, 0]	n/a	0	1	0	n/a	n/a	0.0	0	0	0	PAL2	0	R1074M
1926.282	0.25	1019592	STUDY_ORIENT	n/a	n/a	CLOCK	SHARK	3	1	CLOCK	n/a	0	11	[0, 0, 0]	n/a	0	1	0	n/a	n/a	0.0	0	0	0	PAL2	0	R1074M
1927.216	4.0	1020059	STUDY_PAIR	n/a	wordpools/wordpool_EN.txt	CLOCK	SHARK	3	1	CLOCK	n/a	0	11	[0, 0, 0]	n/a	0	1	0	n/a	n/a	0.0	0	0	0	PAL2	0	R1074M
1932.25	0.25	1022576	STUDY_ORIENT	n/a	n/a	BUSH	SCHOOL	4	4	SCHOOL	BUSH	1	11	[0, 0, 0]	n/a	0	1	0	n/a	n/a	0.0	0	0	0	PAL2	0	R1074M
1933.25	4.0	1023076	STUDY_PAIR	n/a	wordpools/wordpool_EN.txt	BUSH	SCHOOL	4	4	SCHOOL	BUSH	1	11	[0, 0, 0]	n/a	0	1	0	n/a	n/a	0.0	0	0	0	PAL2	0	R1074M
1938.268	0.25	1025585	STUDY_ORIENT	n/a	n/a	SAIL	SOCK	5	5	SAIL	n/a	0	11	[0, 0, 0]	n/a	0	1	0	n/a	n/a	0.0	0	0	0	PAL2	0	R1074M
1939.201	4.0	1026052	STUDY_PAIR	n/a	wordpools/wordpool_EN.txt	SAIL	SOCK	5	5	SAIL	n/a	0	11	[0, 0, 0]	n/a	0	1	0	n/a	n/a	0.0	0	0	0	PAL2	0	R1074M
1944.219	0.25	1028560	STUDY_ORIENT	n/a	n/a	FLAME	PEAR	6	2	FLAME	n/a	0	11	[0, 0, 0]	n/a	0	1	0	n/a	n/a	0.0	0	0	0	PAL2	0	R1074M
1945.086	4.0	1028994	STUDY_PAIR	n/a	wordpools/wordpool_EN.txt	FLAME	PEAR	6	2	FLAME	n/a	0	11	[0, 0, 0]	n/a	0	1	0	n/a	n/a	0.0	0	0	0	PAL2	0	R1074M
1949.104	0.999	1031003	START	n/a	n/a	n/a	n/a	-999	-999	n/a	n/a	-999	11	[-999, -999, -999]	n/a	0	1	0	n/a	n/a	0.0	0	0	0	PAL2	0	R1074M
1950.103	0.017	1031502	MATH_START	n/a	n/a	n/a	n/a	-999	-999	n/a	n/a	-999	11	[0, 0, 0]	n/a	0	1	0	n/a	n/a	0.0	0	0	0	PAL2	0	R1074M
1950.12	9.67	1031511	PROB	9.646	n/a	n/a	n/a	-999	-999	n/a	n/a	-999	11	[2, 8, 7]	17	0	1	0	n/a	n/a	0.0	0	0	0	PAL2	0	R1074M
1959.79	5.184	1036346	PROB	5.152	n/a	n/a	n/a	-999	-999	n/a	n/a	-999	11	[1, 5, 2]	8	0	1	0	n/a	n/a	0.0	0	0	0	PAL2	0	R1074M
1964.974	11.816	1038937	PROB	11.816	n/a	n/a	n/a	-999	-999	n/a	n/a	-999	11	[8, 7, 9]	24	0	1	0	n/a	n/a	0.0	0	0	0	PAL2	0	R1074M
1976.79	0.003	1044845	STOP	n/a	n/a	n/a	n/a	-999	-999	n/a	n/a	-999	11	[-999, -999, -999]	n/a	0	1	0	n/a	n/a	0.0	0	0	0	PAL2	0	R1074M
1976.793	0.0	1044847	TEST_START	n/a	n/a	n/a	n/a	-999	-999	n/a	n/a	-999	11	[0, 0, 0]	n/a	0	1	0	n/a	n/a	0.0	0	0	0	PAL2	0	R1074M
1976.793	0.017	1044847	MATH_END	n/a	n/a	n/a	n/a	-999	-999	n/a	n/a	-999	11	[0, 0, 0]	n/a	0	1	0	n/a	n/a	0.0	0	0	0	PAL2	0	R1074M
1976.81	0.25	1044855	TEST_ORIENT	n/a	n/a	CLOCK	SHARK	3	1	CLOCK	n/a	0	11	[0, 0, 0]	n/a	0	1	0	n/a	n/a	0.0	0	0	0	PAL2	0	R1074M
1977.827	4.0	1045364	TEST_PROBE	n/a	wordpools/wordpool_EN.txt	CLOCK	SHARK	3	1	CLOCK	n/a	0	11	[0, 0, 0]	n/a	0	1	0	n/a	n/a	0.0	0	0	0	PAL2	0	R1074M
1977.828	0.0	1045364	REC_START	n/a	n/a	n/a	n/a	3	-999	n/a	n/a	0	11	[0, 0, 0]	n/a	0	1	0	n/a	n/a	0.0	0	0	0	PAL2	0	R1074M
1977.828	5.023	1045364	REC_EVENT	0.0	n/a	CLOCK	SHARK	3	1	CLOCK	<>	0	11	[0, 0, 0]	n/a	0	1	0	n/a	n/a	0.0	0	0	0	PAL2	0	R1074M
1982.851	0.01	1047875	REC_END	n/a	n/a	n/a	n/a	3	-999	n/a	n/a	-999	11	[0, 0, 0]	n/a	0	1	0	n/a	n/a	0.0	0	0	0	PAL2	0	R1074M
1982.861	0.25	1047880	TEST_ORIENT	n/a	n/a	FLAME	PEAR	6	2	FLAME	n/a	0	11	[0, 0, 0]	n/a	0	1	0	n/a	n/a	0.0	0	0	0	PAL2	0	R1074M
1983.533	4.6	1048216	STIM_ON	n/a	n/a	FLAME	PEAR	6	2	FLAME	n/a	0	11	[0, 0, 0]	n/a	1	1	4600	LW1	LW2	1000.0	50	230	300	PAL2	0	R1074M
1983.745	4.0	1048322	TEST_PROBE	n/a	wordpools/wordpool_EN.txt	FLAME	PEAR	6	2	FLAME	n/a	0	11	[0, 0, 0]	n/a	1	1	4600	LW1	LW2	1000.0	50	230	300	PAL2	0	R1074M
1983.745	0.0	1048322	REC_START	n/a	n/a	n/a	n/a	6	-999	n/a	n/a	0	11	[0, 0, 0]	n/a	1	1	4600	LW1	LW2	1000.0	50	230	300	PAL2	0	R1074M
1983.745	5.017	1048322	REC_EVENT	0.0	n/a	FLAME	PEAR	6	2	FLAME	<>	0	11	[0, 0, 0]	n/a	1	1	4600	LW1	LW2	1000.0	50	230	300	PAL2	0	R1074M
1988.762	0.017	1050831	REC_END	n/a	n/a	n/a	n/a	6	-999	n/a	n/a	-999	11	[0, 0, 0]	n/a	0	1	0	n/a	n/a	0.0	0	0	0	PAL2	0	R1074M
1988.779	0.25	1050839	TEST_ORIENT	n/a	n/a	SHIELD	CROW	1	3	SHIELD	n/a	0	11	[0, 0, 0]	n/a	0	1	0	n/a	n/a	0.0	0	0	0	PAL2	0	R1074M
1989.796	0.0	1051348	REC_START	n/a	n/a	n/a	n/a	1	-999	n/a	n/a	0	11	[0, 0, 0]	n/a	0	1	0	n/a	n/a	0.0	0	0	0	PAL2	0	R1074M
1989.796	0.0	1051348	REC_EVENT	0.0	n/a	SHIELD	CROW	1	3	SHIELD	<>	0	11	[0, 0, 0]	n/a	0	1	0	n/a	n/a	0.0	0	0	0	PAL2	0	R1074M
1989.796	4.0	1051348	TEST_PROBE	n/a	wordpools/wordpool_EN.txt	SHIELD	CROW	1	3	SHIELD	n/a	0	11	[0, 0, 0]	n/a	0	1	0	n/a	n/a	0.0	0	0	0	PAL2	0	R1074M
1994.813	0.017	1053856	REC_END	n/a	n/a	n/a	n/a	1	-999	n/a	n/a	-999	11	[0, 0, 0]	n/a	0	1	0	n/a	n/a	0.0	0	0	0	PAL2	0	R1074M
1994.83	0.25	1053865	TEST_ORIENT	n/a	n/a	BUSH	SCHOOL	4	4	SCHOOL	BUSH	1	11	[0, 0, 0]	n/a	0	1	0	n/a	n/a	0.0	0	0	0	PAL2	0	R1074M
1995.611	4.6	1054255	STIM_ON	n/a	n/a	BUSH	SCHOOL	4	4	SCHOOL	BUSH	1	11	[0, 0, 0]	n/a	1	1	4600	LW1	LW2	1000.0	50	230	300	PAL2	0	R1074M
1995.814	4.0	1054357	TEST_PROBE	n/a	wordpools/wordpool_EN.txt	BUSH	SCHOOL	4	4	SCHOOL	BUSH	1	11	[0, 0, 0]	n/a	1	1	4600	LW1	LW2	1000.0	50	230	300	PAL2	0	R1074M
1995.814	1.461	1054357	REC_START	n/a	n/a	n/a	n/a	4	-999	n/a	BUSH	1	11	[0, 0, 0]	n/a	1	1	4600	LW1	LW2	1000.0	50	230	300	PAL2	0	R1074M
1997.275	3.556	1055087	REC_EVENT	1.461	n/a	BUSH	SCHOOL	4	4	SCHOOL	BUSH	1	11	[0, 0, 0]	n/a	1	1	4600	LW1	LW2	1000.0	50	230	300	PAL2	0	R1074M
2000.831	0.017	1056865	REC_END	n/a	n/a	n/a	n/a	4	-999	n/a	n/a	-999	11	[0, 0, 0]	n/a	0	1	0	n/a	n/a	0.0	0	0	0	PAL2	0	R1074M
2000.848	0.25	1056873	TEST_ORIENT	n/a	n/a	SAIL	SOCK	5	5	SAIL	n/a	0	11	[0, 0, 0]	n/a	0	1	0	n/a	n/a	0.0	0	0	0	PAL2	0	R1074M
2001.665	4.0	1057282	TEST_PROBE	n/a	wordpools/wordpool_EN.txt	SAIL	SOCK	5	5	SAIL	n/a	0	11	[0, 0, 0]	n/a	0	1	0	n/a	n/a	0.0	0	0	0	PAL2	0	R1074M
2001.665	0.0	1057282	REC_START	n/a	n/a	n/a	n/a	5	-999	n/a	n/a	0	11	[0, 0, 0]	n/a	0	1	0	n/a	n/a	0.0	0	0	0	PAL2	0	R1074M
2001.665	5.017	1057282	REC_EVENT	0.0	n/a	SAIL	SOCK	5	5	SAIL	<>	0	11	[0, 0, 0]	n/a	0	1	0	n/a	n/a	0.0	0	0	0	PAL2	0	R1074M
2006.682	0.017	1059790	REC_END	n/a	n/a	n/a	n/a	5	-999	n/a	n/a	-999	11	[0, 0, 0]	n/a	0	1	0	n/a	n/a	0.0	0	0	0	PAL2	0	R1074M
2006.699	0.25	1059799	TEST_ORIENT	n/a	n/a	SOAP	SEAT	2	6	SOAP	n/a	0	11	[0, 0, 0]	n/a	0	1	0	n/a	n/a	0.0	0	0	0	PAL2	0	R1074M
2007.377	4.6	1060138	STIM_ON	n/a	n/a	SOAP	SEAT	2	6	SOAP	n/a	0	11	[0, 0, 0]	n/a	1	1	4600	LW1	LW2	1000.0	50	230	300	PAL2	0	R1074M
2007.583	4.0	1060241	TEST_PROBE	n/a	wordpools/wordpool_EN.txt	SOAP	SEAT	2	6	SOAP	n/a	0	11	[0, 0, 0]	n/a	1	1	4600	LW1	LW2	1000.0	50	230	300	PAL2	0	R1074M
2007.583	0.0	1060241	REC_START	n/a	n/a	n/a	n/a	2	-999	n/a	n/a	0	11	[0, 0, 0]	n/a	1	1	4600	LW1	LW2	1000.0	50	230	300	PAL2	0	R1074M
2007.583	5.017	1060241	REC_EVENT	0.0	n/a	SOAP	SEAT	2	6	SOAP	<>	0	11	[0, 0, 0]	n/a	1	1	4600	LW1	LW2	1000.0	50	230	300	PAL2	0	R1074M
2012.6	4.166	1062749	REC_END	n/a	n/a	n/a	n/a	2	-999	n/a	n/a	-999	11	[0, 0, 0]	n/a	0	1	0	n/a	n/a	0.0	0	0	0	PAL2	0	R1074M
2016.766	10.436	1064832	ENCODING_START	n/a	n/a	n/a	n/a	0	-999	n/a	n/a	-999	12	[0, 0, 0]	n/a	0	1	0	n/a	n/a	0.0	0	0	0	PAL2	0	R1074M
2027.202	0.25	1070050	STUDY_ORIENT	n/a	n/a	POLE	GUARD	1	3	POLE	n/a	0	12	[0, 0, 0]	n/a	0	1	0	n/a	n/a	0.0	0	0	0	PAL2	0	R1074M
2027.952	4.6	1070425	STIM_ON	n/a	n/a	POLE	GUARD	1	3	POLE	n/a	0	12	[0, 0, 0]	n/a	1	1	4600	LW1	LW2	1000.0	50	230	300	PAL2	0	R1074M
2028.169	4.0	1070533	STUDY_PAIR	n/a	wordpools/wordpool_EN.txt	POLE	GUARD	1	3	POLE	n/a	0	12	[0, 0, 0]	n/a	1	1	4600	LW1	LW2	1000.0	50	230	300	PAL2	0	R1074M
2033.187	0.25	1073042	STUDY_ORIENT	n/a	n/a	YARD	COIN	2	6	YARD	n/a	0	12	[0, 0, 0]	n/a	0	1	0	n/a	n/a	0.0	0	0	0	PAL2	0	R1074M
2033.971	4.0	1073434	STUDY_PAIR	n/a	wordpools/wordpool_EN.txt	YARD	COIN	2	6	YARD	n/a	0	12	[0, 0, 0]	n/a	0	1	0	n/a	n/a	0.0	0	0	0	PAL2	0	R1074M
2038.989	0.25	1075943	STUDY_ORIENT	n/a	n/a	TOE	GATE	3	1	TOE	n/a	0	12	[0, 0, 0]	n/a	0	1	0	n/a	n/a	0.0	0	0	0	PAL2	0	R1074M
2039.721	4.6	1076309	STIM_ON	n/a	n/a	TOE	GATE	3	1	TOE	n/a	0	12	[0, 0, 0]	n/a	1	1	4600	LW1	LW2	1000.0	50	230	300	PAL2	0	R1074M
2039.922	4.0	1076409	STUDY_PAIR	n/a	wordpools/wordpool_EN.txt	TOE	GATE	3	1	TOE	n/a	0	12	[0, 0, 0]	n/a	1	1	4600	LW1	LW2	1000.0	50	230	300	PAL2	0	R1074M
2044.94	0.25	1078918	STUDY_ORIENT	n/a	n/a	STREET	CAR	4	4	CAR	n/a	0	12	[0, 0, 0]	n/a	0	1	0	n/a	n/a	0.0	0	0	0	PAL2	0	R1074M
2045.774	4.0	1079335	STUDY_PAIR	n/a	wordpools/wordpool_EN.txt	STREET	CAR	4	4	CAR	n/a	0	12	[0, 0, 0]	n/a	0	1	0	n/a	n/a	0.0	0	0	0	PAL2	0	R1074M
2050.808	0.25	1081852	STUDY_ORIENT	n/a	n/a	PIT	FUDGE	5	5	PIT	n/a	0	12	[0, 0, 0]	n/a	0	1	0	n/a	n/a	0.0	0	0	0	PAL2	0	R1074M
2051.524	4.6	1082210	STIM_ON	n/a	n/a	PIT	FUDGE	5	5	PIT	n/a	0	12	[0, 0, 0]	n/a	1	1	4600	LW1	LW2	1000.0	50	230	300	PAL2	0	R1074M
2051.742	4.0	1082319	STUDY_PAIR	n/a	wordpools/wordpool_EN.txt	PIT	FUDGE	5	5	PIT	n/a	0	12	[0, 0, 0]	n/a	1	1	4600	LW1	LW2	1000.0	50	230	300	PAL2	0	R1074M
2056.776	0.25	1084836	STUDY_ORIENT	n/a	n/a	DOCK	DIME	6	2	DIME	DOCK	1	12	[0, 0, 0]	n/a	0	1	0	n/a	n/a	0.0	0	0	0	PAL2	0	R1074M
2057.659	4.0	1085277	STUDY_PAIR	n/a	wordpools/wordpool_EN.txt	DOCK	DIME	6	2	DIME	DOCK	1	12	[0, 0, 0]	n/a	0	1	0	n/a	n/a	0.0	0	0	0	PAL2	0	R1074M
2061.66	1.0	1087278	START	n/a	n/a	n/a	n/a	-999	-999	n/a	n/a	-999	12	[-999, -999, -999]	n/a	0	1	0	n/a	n/a	0.0	0	0	0	PAL2	0	R1074M
2062.66	0.017	1087778	MATH_START	n/a	n/a	n/a	n/a	-999	-999	n/a	n/a	-999	12	[0, 0, 0]	n/a	0	1	0	n/a	n/a	0.0	0	0	0	PAL2	0	R1074M
2062.677	6.851	1087786	PROB	6.833	n/a	n/a	n/a	-999	-999	n/a	n/a	-999	12	[3, 3, 4]	10	0	1	0	n/a	n/a	0.0	0	0	0	PAL2	0	R1074M
2069.528	9.036	1091212	PROB	9.006	n/a	n/a	n/a	-999	-999	n/a	n/a	-999	12	[3, 8, 4]	15	0	1	0	n/a	n/a	0.0	0	0	0	PAL2	0	R1074M
2078.564	4.162	1095729	PROB	4.162	n/a	n/a	n/a	-999	-999	n/a	n/a	-999	12	[2, 9, 1]	12	0	1	0	n/a	n/a	0.0	0	0	0	PAL2	0	R1074M
2082.726	0.005	1097810	STOP	n/a	n/a	n/a	n/a	-999	-999	n/a	n/a	-999	12	[-999, -999, -999]	n/a	0	1	0	n/a	n/a	0.0	0	0	0	PAL2	0	R1074M
2082.731	0.0	1097813	MATH_END	n/a	n/a	n/a	n/a	-999	-999	n/a	n/a	-999	12	[0, 0, 0]	n/a	0	1	0	n/a	n/a	0.0	0	0	0	PAL2	0	R1074M
2082.731	0.017	1097813	TEST_START	n/a	n/a	n/a	n/a	-999	-999	n/a	n/a	-999	12	[0, 0, 0]	n/a	0	1	0	n/a	n/a	0.0	0	0	0	PAL2	0	R1074M
2082.748	0.25	1097821	TEST_ORIENT	n/a	n/a	TOE	GATE	3	1	TOE	n/a	0	12	[0, 0, 0]	n/a	0	1	0	n/a	n/a	0.0	0	0	0	PAL2	0	R1074M
2083.715	4.0	1098305	TEST_PROBE	n/a	wordpools/wordpool_EN.txt	TOE	GATE	3	1	TOE	n/a	0	12	[0, 0, 0]	n/a	0	1	0	n/a	n/a	0.0	0	0	0	PAL2	0	R1074M
2083.715	0.0	1098305	REC_START	n/a	n/a	n/a	n/a	3	-999	n/a	n/a	0	12	[0, 0, 0]	n/a	0	1	0	n/a	n/a	0.0	0	0	0	PAL2	0	R1074M
2083.715	5.017	1098305	REC_EVENT	0.0	n/a	TOE	GATE	3	1	TOE	<>	0	12	[0, 0, 0]	n/a	0	1	0	n/a	n/a	0.0	0	0	0	PAL2	0	R1074M
2088.732	0.017	1100813	REC_END	n/a	n/a	n/a	n/a	3	-999	n/a	n/a	-999	12	[0, 0, 0]	n/a	0	1	0	n/a	n/a	0.0	0	0	0	PAL2	0	R1074M
2088.749	0.25	1100822	TEST_ORIENT	n/a	n/a	DOCK	DIME	6	2	DIME	DOCK	1	12	[0, 0, 0]	n/a	0	1	0	n/a	n/a	0.0	0	0	0	PAL2	0	R1074M
2089.599	4.0	1101246	TEST_PROBE	n/a	wordpools/wordpool_EN.txt	DOCK	DIME	6	2	DIME	DOCK	1	12	[0, 0, 0]	n/a	0	1	0	n/a	n/a	0.0	0	0	0	PAL2	0	R1074M
2089.6	1.37	1101247	REC_START	n/a	n/a	n/a	n/a	6	-999	n/a	DOCK	1	12	[0, 0, 0]	n/a	0	1	0	n/a	n/a	0.0	0	0	0	PAL2	0	R1074M
2090.97	3.638	1101932	REC_EVENT	1.37	n/a	DOCK	DIME	6	2	DIME	DOCK	1	12	[0, 0, 0]	n/a	0	1	0	n/a	n/a	0.0	0	0	0	PAL2	0	R1074M
2094.608	0.009	1103751	REC_END	n/a	n/a	n/a	n/a	6	-999	n/a	n/a	-999	12	[0, 0, 0]	n/a	0	1	0	n/a	n/a	0.0	0	0	0	PAL2	0	R1074M
2094.617	0.25	1103755	TEST_ORIENT	n/a	n/a	POLE	GUARD	1	3	POLE	n/a	0	12	[0, 0, 0]	n/a	0	1	0	n/a	n/a	0.0	0	0	0	PAL2	0	R1074M
2095.416	4.0	1104155	TEST_PROBE	n/a	wordpools/wordpool_EN.txt	POLE	GUARD	1	3	POLE	n/a	0	12	[0, 0, 0]	n/a	0	1	0	n/a	n/a	0.0	0	0	0	PAL2	0	R1074M
2095.416	0.0	1104155	REC_START	n/a	n/a	n/a	n/a	1	-999	n/a	n/a	0	12	[0, 0, 0]	n/a	0	1	0	n/a	n/a	0.0	0	0	0	PAL2	0	R1074M
2095.416	5.017	1104155	REC_EVENT	0.0	n/a	POLE	GUARD	1	3	POLE	<>	0	12	[0, 0, 0]	n/a	0	1	0	n/a	n/a	0.0	0	0	0	PAL2	0	R1074M
2100.433	0.017	1106663	REC_END	n/a	n/a	n/a	n/a	1	-999	n/a	n/a	-999	12	[0, 0, 0]	n/a	0	1	0	n/a	n/a	0.0	0	0	0	PAL2	0	R1074M
2100.45	0.25	1106672	TEST_ORIENT	n/a	n/a	STREET	CAR	4	4	CAR	n/a	0	12	[0, 0, 0]	n/a	0	1	0	n/a	n/a	0.0	0	0	0	PAL2	0	R1074M
2101.417	4.0	1107155	TEST_PROBE	n/a	wordpools/wordpool_EN.txt	STREET	CAR	4	4	CAR	n/a	0	12	[0, 0, 0]	n/a	0	1	0	n/a	n/a	0.0	0	0	0	PAL2	0	R1074M
2101.418	0.0	1107156	REC_START	n/a	n/a	n/a	n/a	4	-999	n/a	n/a	0	12	[0, 0, 0]	n/a	0	1	0	n/a	n/a	0.0	0	0	0	PAL2	0	R1074M
2101.418	5.007	1107156	REC_EVENT	0.0	n/a	STREET	CAR	4	4	CAR	<>	0	12	[0, 0, 0]	n/a	0	1	0	n/a	n/a	0.0	0	0	0	PAL2	0	R1074M
2106.425	0.01	1109659	REC_END	n/a	n/a	n/a	n/a	4	-999	n/a	n/a	-999	12	[0, 0, 0]	n/a	0	1	0	n/a	n/a	0.0	0	0	0	PAL2	0	R1074M
2106.435	0.25	1109664	TEST_ORIENT	n/a	n/a	PIT	FUDGE	5	5	PIT	n/a	0	12	[0, 0, 0]	n/a	0	1	0	n/a	n/a	0.0	0	0	0	PAL2	0	R1074M
2107.285	0.0	1110089	REC_EVENT	0.0	n/a	PIT	FUDGE	5	5	PIT	<>	0	12	[0, 0, 0]	n/a	0	1	0	n/a	n/a	0.0	0	0	0	PAL2	0	R1074M
2107.285	0.0	1110089	REC_START	n/a	n/a	n/a	n/a	5	-999	n/a	n/a	0	12	[0, 0, 0]	n/a	0	1	0	n/a	n/a	0.0	0	0	0	PAL2	0	R1074M
2107.285	4.0	1110089	TEST_PROBE	n/a	wordpools/wordpool_EN.txt	PIT	FUDGE	5	5	PIT	n/a	0	12	[0, 0, 0]	n/a	0	1	0	n/a	n/a	0.0	0	0	0	PAL2	0	R1074M
2112.31	0.009	1112601	REC_END	n/a	n/a	n/a	n/a	5	-999	n/a	n/a	-999	12	[0, 0, 0]	n/a	0	1	0	n/a	n/a	0.0	0	0	0	PAL2	0	R1074M
2112.319	0.25	1112606	TEST_ORIENT	n/a	n/a	YARD	COIN	2	6	YARD	n/a	0	12	[0, 0, 0]	n/a	0	1	0	n/a	n/a	0.0	0	0	0	PAL2	0	R1074M
2113.286	4.0	1113089	TEST_PROBE	n/a	wordpools/wordpool_EN.txt	YARD	COIN	2	6	YARD	n/a	0	12	[0, 0, 0]	n/a	0	1	0	n/a	n/a	0.0	0	0	0	PAL2	0	R1074M
2113.287	0.0	1113090	REC_START	n/a	n/a	n/a	n/a	2	-999	n/a	n/a	0	12	[0, 0, 0]	n/a	0	1	0	n/a	n/a	0.0	0	0	0	PAL2	0	R1074M
2113.287	5.007	1113090	REC_EVENT	0.0	n/a	YARD	COIN	2	6	YARD	<>	0	12	[0, 0, 0]	n/a	0	1	0	n/a	n/a	0.0	0	0	0	PAL2	0	R1074M
2118.294	3.496	1115593	REC_END	n/a	n/a	n/a	n/a	2	-999	n/a	n/a	-999	12	[0, 0, 0]	n/a	0	1	0	n/a	n/a	0.0	0	0	0	PAL2	0	R1074M
2121.79	10.45	1117341	ENCODING_START	n/a	n/a	n/a	n/a	0	-999	n/a	n/a	-999	13	[0, 0, 0]	n/a	0	1	0	n/a	n/a	0.0	0	0	0	PAL2	0	R1074M
2132.24	0.25	1122566	STUDY_ORIENT	n/a	n/a	NEST	SNAIL	1	1	NEST	n/a	0	13	[0, 0, 0]	n/a	0	1	0	n/a	n/a	0.0	0	0	0	PAL2	0	R1074M
2132.845	4.6	1122868	STIM_ON	n/a	n/a	NEST	SNAIL	1	1	NEST	n/a	0	13	[0, 0, 0]	n/a	1	1	4600	LW1	LW2	1000.0	50	230	300	PAL2	0	R1074M
2133.057	4.0	1122974	STUDY_PAIR	n/a	wordpools/wordpool_EN.txt	NEST	SNAIL	1	1	NEST	n/a	0	13	[0, 0, 0]	n/a	1	1	4600	LW1	LW2	1000.0	50	230	300	PAL2	0	R1074M
2138.091	0.25	1125491	STUDY_ORIENT	n/a	n/a	BEE	HAT	2	6	BEE	n/a	0	13	[0, 0, 0]	n/a	0	1	0	n/a	n/a	0.0	0	0	0	PAL2	0	R1074M
2138.876	4.0	1125884	STUDY_PAIR	n/a	wordpools/wordpool_EN.txt	BEE	HAT	2	6	BEE	n/a	0	13	[0, 0, 0]	n/a	0	1	0	n/a	n/a	0.0	0	0	0	PAL2	0	R1074M
2143.91	0.25	1128401	STUDY_ORIENT	n/a	n/a	SHIRT	FAN	3	3	SHIRT	n/a	0	13	[0, 0, 0]	n/a	0	1	0	n/a	n/a	0.0	0	0	0	PAL2	0	R1074M
2144.491	4.6	1128691	STIM_ON	n/a	n/a	SHIRT	FAN	3	3	SHIRT	n/a	0	13	[0, 0, 0]	n/a	1	1	4600	LW1	LW2	1000.0	50	230	300	PAL2	0	R1074M
2144.693	4.0	1128792	STUDY_PAIR	n/a	wordpools/wordpool_EN.txt	SHIRT	FAN	3	3	SHIRT	n/a	0	13	[0, 0, 0]	n/a	1	1	4600	LW1	LW2	1000.0	50	230	300	PAL2	0	R1074M
2149.711	0.25	1131301	STUDY_ORIENT	n/a	n/a	DESK	PIG	4	2	PIG	n/a	0	13	[0, 0, 0]	n/a	0	1	0	n/a	n/a	0.0	0	0	0	PAL2	0	R1074M
2150.628	4.0	1131759	STUDY_PAIR	n/a	wordpools/wordpool_EN.txt	DESK	PIG	4	2	PIG	n/a	0	13	[0, 0, 0]	n/a	0	1	0	n/a	n/a	0.0	0	0	0	PAL2	0	R1074M
2155.662	0.25	1134276	STUDY_ORIENT	n/a	n/a	EEL	FLOOR	5	5	EEL	n/a	0	13	[0, 0, 0]	n/a	0	1	0	n/a	n/a	0.0	0	0	0	PAL2	0	R1074M
2156.4	4.6	1134645	STIM_ON	n/a	n/a	EEL	FLOOR	5	5	EEL	n/a	0	13	[0, 0, 0]	n/a	1	1	4600	LW1	LW2	1000.0	50	230	300	PAL2	0	R1074M
2156.612	4.0	1134751	STUDY_PAIR	n/a	wordpools/wordpool_EN.txt	EEL	FLOOR	5	5	EEL	n/a	0	13	[0, 0, 0]	n/a	1	1	4600	LW1	LW2	1000.0	50	230	300	PAL2	0	R1074M
2161.63	0.25	1137260	STUDY_ORIENT	n/a	n/a	ROOF	SALT	6	4	SALT	n/a	0	13	[0, 0, 0]	n/a	0	1	0	n/a	n/a	0.0	0	0	0	PAL2	0	R1074M
2162.63	4.0	1137760	STUDY_PAIR	n/a	wordpools/wordpool_EN.txt	ROOF	SALT	6	4	SALT	n/a	0	13	[0, 0, 0]	n/a	0	1	0	n/a	n/a	0.0	0	0	0	PAL2	0	R1074M
2166.632	0.999	1139761	START	n/a	n/a	n/a	n/a	-999	-999	n/a	n/a	-999	13	[-999, -999, -999]	n/a	0	1	0	n/a	n/a	0.0	0	0	0	PAL2	0	R1074M
2167.631	0.017	1140260	MATH_START	n/a	n/a	n/a	n/a	-999	-999	n/a	n/a	-999	13	[0, 0, 0]	n/a	0	1	0	n/a	n/a	0.0	0	0	0	PAL2	0	R1074M
2167.648	4.984	1140269	PROB	4.958	n/a	n/a	n/a	-999	-999	n/a	n/a	-999	13	[1, 4, 2]	7	0	1	0	n/a	n/a	0.0	0	0	0	PAL2	0	R1074M
2172.632	5.45	1142761	PROB	5.421	n/a	n/a	n/a	-999	-999	n/a	n/a	-999	13	[8, 2, 4]	14	0	1	0	n/a	n/a	0.0	0	0	0	PAL2	0	R1074M
2178.082	5.569	1145486	PROB	5.548	n/a	n/a	n/a	-999	-999	n/a	n/a	-999	13	[4, 7, 2]	13	0	1	0	n/a	n/a	0.0	0	0	0	PAL2	0	R1074M
2183.651	6.091	1148270	PROB	6.091	n/a	n/a	n/a	-999	-999	n/a	n/a	-999	13	[6, 9, 3]	18	0	1	0	n/a	n/a	0.0	0	0	0	PAL2	0	R1074M
2189.742	0.01	1151315	STOP	n/a	n/a	n/a	n/a	-999	-999	n/a	n/a	-999	13	[-999, -999, -999]	n/a	0	1	0	n/a	n/a	0.0	0	0	0	PAL2	0	R1074M
2189.752	0.0	1151320	MATH_END	n/a	n/a	n/a	n/a	-999	-999	n/a	n/a	-999	13	[0, 0, 0]	n/a	0	1	0	n/a	n/a	0.0	0	0	0	PAL2	0	R1074M
2189.752	0.017	1151320	TEST_START	n/a	n/a	n/a	n/a	-999	-999	n/a	n/a	-999	13	[0, 0, 0]	n/a	0	1	0	n/a	n/a	0.0	0	0	0	PAL2	0	R1074M
2189.769	0.25	1151329	TEST_ORIENT	n/a	n/a	NEST	SNAIL	1	1	NEST	n/a	0	13	[0, 0, 0]	n/a	0	1	0	n/a	n/a	0.0	0	0	0	PAL2	0	R1074M
2190.619	4.0	1151754	TEST_PROBE	n/a	wordpools/wordpool_EN.txt	NEST	SNAIL	1	1	NEST	n/a	0	13	[0, 0, 0]	n/a	0	1	0	n/a	n/a	0.0	0	0	0	PAL2	0	R1074M
2190.62	0.0	1151754	REC_START	n/a	n/a	n/a	n/a	1	-999	n/a	n/a	0	13	[0, 0, 0]	n/a	0	1	0	n/a	n/a	0.0	0	0	0	PAL2	0	R1074M
2190.62	5.007	1151754	REC_EVENT	0.0	n/a	NEST	SNAIL	1	1	NEST	<>	0	13	[0, 0, 0]	n/a	0	1	0	n/a	n/a	0.0	0	0	0	PAL2	0	R1074M
2195.627	0.01	1154258	REC_END	n/a	n/a	n/a	n/a	1	-999	n/a	n/a	-999	13	[0, 0, 0]	n/a	0	1	0	n/a	n/a	0.0	0	0	0	PAL2	0	R1074M
2195.637	0.25	1154263	TEST_ORIENT	n/a	n/a	DESK	PIG	4	2	PIG	n/a	0	13	[0, 0, 0]	n/a	0	1	0	n/a	n/a	0.0	0	0	0	PAL2	0	R1074M
2196.503	4.0	1154696	TEST_PROBE	n/a	wordpools/wordpool_EN.txt	DESK	PIG	4	2	PIG	n/a	0	13	[0, 0, 0]	n/a	0	1	0	n/a	n/a	0.0	0	0	0	PAL2	0	R1074M
2196.503	0.0	1154696	REC_START	n/a	n/a	n/a	n/a	4	-999	n/a	n/a	0	13	[0, 0, 0]	n/a	0	1	0	n/a	n/a	0.0	0	0	0	PAL2	0	R1074M
2196.503	5.018	1154696	REC_EVENT	0.0	n/a	DESK	PIG	4	2	PIG	<>	0	13	[0, 0, 0]	n/a	0	1	0	n/a	n/a	0.0	0	0	0	PAL2	0	R1074M
2201.521	0.017	1157204	REC_END	n/a	n/a	n/a	n/a	4	-999	n/a	n/a	-999	13	[0, 0, 0]	n/a	0	1	0	n/a	n/a	0.0	0	0	0	PAL2	0	R1074M
2201.538	0.25	1157213	TEST_ORIENT	n/a	n/a	SHIRT	FAN	3	3	SHIRT	n/a	0	13	[0, 0, 0]	n/a	0	1	0	n/a	n/a	0.0	0	0	0	PAL2	0	R1074M
2202.522	4.0	1157705	TEST_PROBE	n/a	wordpools/wordpool_EN.txt	SHIRT	FAN	3	3	SHIRT	n/a	0	13	[0, 0, 0]	n/a	0	1	0	n/a	n/a	0.0	0	0	0	PAL2	0	R1074M
2202.522	0.0	1157705	REC_START	n/a	n/a	n/a	n/a	3	-999	n/a	n/a	0	13	[0, 0, 0]	n/a	0	1	0	n/a	n/a	0.0	0	0	0	PAL2	0	R1074M
2202.522	5.017	1157705	REC_EVENT	0.0	n/a	SHIRT	FAN	3	3	SHIRT	<>	0	13	[0, 0, 0]	n/a	0	1	0	n/a	n/a	0.0	0	0	0	PAL2	0	R1074M
2207.539	0.017	1160213	REC_END	n/a	n/a	n/a	n/a	3	-999	n/a	n/a	-999	13	[0, 0, 0]	n/a	0	1	0	n/a	n/a	0.0	0	0	0	PAL2	0	R1074M
2207.556	0.25	1160222	TEST_ORIENT	n/a	n/a	ROOF	SALT	6	4	SALT	n/a	0	13	[0, 0, 0]	n/a	0	1	0	n/a	n/a	0.0	0	0	0	PAL2	0	R1074M
2208.556	4.0	1160722	TEST_PROBE	n/a	wordpools/wordpool_EN.txt	ROOF	SALT	6	4	SALT	n/a	0	13	[0, 0, 0]	n/a	0	1	0	n/a	n/a	0.0	0	0	0	PAL2	0	R1074M
2208.557	0.0	1160722	REC_START	n/a	n/a	n/a	n/a	6	-999	n/a	n/a	0	13	[0, 0, 0]	n/a	0	1	0	n/a	n/a	0.0	0	0	0	PAL2	0	R1074M
2208.557	5.007	1160722	REC_EVENT	0.0	n/a	ROOF	SALT	6	4	SALT	<>	0	13	[0, 0, 0]	n/a	0	1	0	n/a	n/a	0.0	0	0	0	PAL2	0	R1074M
2213.564	0.01	1163226	REC_END	n/a	n/a	n/a	n/a	6	-999	n/a	n/a	-999	13	[0, 0, 0]	n/a	0	1	0	n/a	n/a	0.0	0	0	0	PAL2	0	R1074M
2213.574	0.25	1163231	TEST_ORIENT	n/a	n/a	EEL	FLOOR	5	5	EEL	n/a	0	13	[0, 0, 0]	n/a	0	1	0	n/a	n/a	0.0	0	0	0	PAL2	0	R1074M
2214.44	4.0	1163664	TEST_PROBE	n/a	wordpools/wordpool_EN.txt	EEL	FLOOR	5	5	EEL	n/a	0	13	[0, 0, 0]	n/a	0	1	0	n/a	n/a	0.0	0	0	0	PAL2	0	R1074M
2214.44	0.0	1163664	REC_START	n/a	n/a	n/a	n/a	5	-999	n/a	n/a	0	13	[0, 0, 0]	n/a	0	1	0	n/a	n/a	0.0	0	0	0	PAL2	0	R1074M
2214.44	5.017	1163664	REC_EVENT	0.0	n/a	EEL	FLOOR	5	5	EEL	<>	0	13	[0, 0, 0]	n/a	0	1	0	n/a	n/a	0.0	0	0	0	PAL2	0	R1074M
2219.457	0.017	1166172	REC_END	n/a	n/a	n/a	n/a	5	-999	n/a	n/a	-999	13	[0, 0, 0]	n/a	0	1	0	n/a	n/a	0.0	0	0	0	PAL2	0	R1074M
2219.474	0.25	1166180	TEST_ORIENT	n/a	n/a	BEE	HAT	2	6	BEE	n/a	0	13	[0, 0, 0]	n/a	0	1	0	n/a	n/a	0.0	0	0	0	PAL2	0	R1074M
2220.474	4.0	1166680	TEST_PROBE	n/a	wordpools/wordpool_EN.txt	BEE	HAT	2	6	BEE	n/a	0	13	[0, 0, 0]	n/a	0	1	0	n/a	n/a	0.0	0	0	0	PAL2	0	R1074M
2220.475	0.0	1166681	REC_START	n/a	n/a	n/a	n/a	2	-999	n/a	n/a	0	13	[0, 0, 0]	n/a	0	1	0	n/a	n/a	0.0	0	0	0	PAL2	0	R1074M
2220.475	5.0	1166681	REC_EVENT	0.0	n/a	BEE	HAT	2	6	BEE	<>	0	13	[0, 0, 0]	n/a	0	1	0	n/a	n/a	0.0	0	0	0	PAL2	0	R1074M
2225.475	15.682	1169181	REC_END	n/a	n/a	n/a	n/a	2	-999	n/a	n/a	-999	13	[0, 0, 0]	n/a	0	1	0	n/a	n/a	0.0	0	0	0	PAL2	0	R1074M
2241.157	10.441	1177021	ENCODING_START	n/a	n/a	n/a	n/a	0	-999	n/a	n/a	-999	14	[0, 0, 0]	n/a	0	1	0	n/a	n/a	0.0	0	0	0	PAL2	0	R1074M
2251.598	0.25	1182242	STUDY_ORIENT	n/a	n/a	BAND	FOX	1	1	BAND	n/a	0	14	[0, 0, 0]	n/a	0	1	0	n/a	n/a	0.0	0	0	0	PAL2	0	R1074M
2252.582	4.0	1182734	STUDY_PAIR	n/a	wordpools/wordpool_EN.txt	BAND	FOX	1	1	BAND	n/a	0	14	[0, 0, 0]	n/a	0	1	0	n/a	n/a	0.0	0	0	0	PAL2	0	R1074M
2257.616	0.25	1185250	STUDY_ORIENT	n/a	n/a	BRUSH	JAIL	2	4	JAIL	n/a	0	14	[0, 0, 0]	n/a	0	1	0	n/a	n/a	0.0	0	0	0	PAL2	0	R1074M
2258.195	4.6	1185540	STIM_ON	n/a	n/a	BRUSH	JAIL	2	4	JAIL	n/a	0	14	[0, 0, 0]	n/a	1	1	4600	LW1	LW2	1000.0	50	230	300	PAL2	0	R1074M
2258.399	4.0	1185642	STUDY_PAIR	n/a	wordpools/wordpool_EN.txt	BRUSH	JAIL	2	4	JAIL	n/a	0	14	[0, 0, 0]	n/a	1	1	4600	LW1	LW2	1000.0	50	230	300	PAL2	0	R1074M
2263.433	0.25	1188159	STUDY_ORIENT	n/a	n/a	BOOK	BATH	3	3	BOOK	n/a	0	14	[0, 0, 0]	n/a	0	1	0	n/a	n/a	0.0	0	0	0	PAL2	0	R1074M
2264.383	4.0	1188634	STUDY_PAIR	n/a	wordpools/wordpool_EN.txt	BOOK	BATH	3	3	BOOK	n/a	0	14	[0, 0, 0]	n/a	0	1	0	n/a	n/a	0.0	0	0	0	PAL2	0	R1074M
2269.417	0.25	1191151	STUDY_ORIENT	n/a	n/a	VASE	FLUTE	4	2	VASE	n/a	0	14	[0, 0, 0]	n/a	0	1	0	n/a	n/a	0.0	0	0	0	PAL2	0	R1074M
2270.139	4.6	1191512	STIM_ON	n/a	n/a	VASE	FLUTE	4	2	VASE	n/a	0	14	[0, 0, 0]	n/a	1	1	4600	LW1	LW2	1000.0	50	230	300	PAL2	0	R1074M
2270.351	4.0	1191618	STUDY_PAIR	n/a	wordpools/wordpool_EN.txt	VASE	FLUTE	4	2	VASE	n/a	0	14	[0, 0, 0]	n/a	1	1	4600	LW1	LW2	1000.0	50	230	300	PAL2	0	R1074M
2275.385	0.25	1194134	STUDY_ORIENT	n/a	n/a	ICE	PIE	5	5	PIE	n/a	0	14	[0, 0, 0]	n/a	0	1	0	n/a	n/a	0.0	0	0	0	PAL2	0	R1074M
2276.202	4.0	1194543	STUDY_PAIR	n/a	wordpools/wordpool_EN.txt	ICE	PIE	5	5	PIE	n/a	0	14	[0, 0, 0]	n/a	0	1	0	n/a	n/a	0.0	0	0	0	PAL2	0	R1074M
2281.236	0.25	1197060	STUDY_ORIENT	n/a	n/a	MAP	SHELL	6	6	SHELL	n/a	0	14	[0, 0, 0]	n/a	0	1	0	n/a	n/a	0.0	0	0	0	PAL2	0	R1074M
2281.957	4.6	1197420	STIM_ON	n/a	n/a	MAP	SHELL	6	6	SHELL	n/a	0	14	[0, 0, 0]	n/a	1	1	4600	LW1	LW2	1000.0	50	230	300	PAL2	0	R1074M
2282.17	4.0	1197527	STUDY_PAIR	n/a	wordpools/wordpool_EN.txt	MAP	SHELL	6	6	SHELL	n/a	0	14	[0, 0, 0]	n/a	1	1	4600	LW1	LW2	1000.0	50	230	300	PAL2	0	R1074M
2286.188	0.999	1199536	START	n/a	n/a	n/a	n/a	-999	-999	n/a	n/a	-999	14	[-999, -999, -999]	n/a	0	1	0	n/a	n/a	0.0	0	0	0	PAL2	0	R1074M
2287.187	0.017	1200035	MATH_START	n/a	n/a	n/a	n/a	-999	-999	n/a	n/a	-999	14	[0, 0, 0]	n/a	0	1	0	n/a	n/a	0.0	0	0	0	PAL2	0	R1074M
2287.204	4.402	1200044	PROB	4.378	n/a	n/a	n/a	-999	-999	n/a	n/a	-999	14	[1, 2, 4]	7	0	1	0	n/a	n/a	0.0	0	0	0	PAL2	0	R1074M
2291.606	8.385	1202244	PROB	8.352	n/a	n/a	n/a	-999	-999	n/a	n/a	-999	14	[7, 4, 6]	17	0	1	0	n/a	n/a	0.0	0	0	0	PAL2	0	R1074M
2299.991	6.034	1206437	PROB	6.015	n/a	n/a	n/a	-999	-999	n/a	n/a	-999	14	[3, 9, 3]	15	0	1	0	n/a	n/a	0.0	0	0	0	PAL2	0	R1074M
2306.025	6.004	1209454	PROB	6.004	n/a	n/a	n/a	-999	-999	n/a	n/a	-999	14	[9, 2, 7]	18	0	1	0	n/a	n/a	0.0	0	0	0	PAL2	0	R1074M
2312.029	0.014	1212455	STOP	n/a	n/a	n/a	n/a	-999	-999	n/a	n/a	-999	14	[-999, -999, -999]	n/a	0	1	0	n/a	n/a	0.0	0	0	0	PAL2	0	R1074M
2312.043	0.0	1212462	MATH_END	n/a	n/a	n/a	n/a	-999	-999	n/a	n/a	-999	14	[0, 0, 0]	n/a	0	1	0	n/a	n/a	0.0	0	0	0	PAL2	0	R1074M
2312.043	0.016	1212462	TEST_START	n/a	n/a	n/a	n/a	-999	-999	n/a	n/a	-999	14	[0, 0, 0]	n/a	0	1	0	n/a	n/a	0.0	0	0	0	PAL2	0	R1074M
2312.059	0.25	1212470	TEST_ORIENT	n/a	n/a	BAND	FOX	1	1	BAND	n/a	0	14	[0, 0, 0]	n/a	0	1	0	n/a	n/a	0.0	0	0	0	PAL2	0	R1074M
2312.91	4.0	1212896	TEST_PROBE	n/a	wordpools/wordpool_EN.txt	BAND	FOX	1	1	BAND	n/a	0	14	[0, 0, 0]	n/a	0	1	0	n/a	n/a	0.0	0	0	0	PAL2	0	R1074M
2312.911	0.0	1212896	REC_START	n/a	n/a	n/a	n/a	1	-999	n/a	n/a	0	14	[0, 0, 0]	n/a	0	1	0	n/a	n/a	0.0	0	0	0	PAL2	0	R1074M
2312.911	5.008	1212896	REC_EVENT	0.0	n/a	BAND	FOX	1	1	BAND	<>	0	14	[0, 0, 0]	n/a	0	1	0	n/a	n/a	0.0	0	0	0	PAL2	0	R1074M
2317.919	0.009	1215400	REC_END	n/a	n/a	n/a	n/a	1	-999	n/a	n/a	-999	14	[0, 0, 0]	n/a	0	1	0	n/a	n/a	0.0	0	0	0	PAL2	0	R1074M
2317.928	0.25	1215405	TEST_ORIENT	n/a	n/a	VASE	FLUTE	4	2	VASE	n/a	0	14	[0, 0, 0]	n/a	0	1	0	n/a	n/a	0.0	0	0	0	PAL2	0	R1074M
2318.895	4.0	1215888	TEST_PROBE	n/a	wordpools/wordpool_EN.txt	VASE	FLUTE	4	2	VASE	n/a	0	14	[0, 0, 0]	n/a	0	1	0	n/a	n/a	0.0	0	0	0	PAL2	0	R1074M
2318.895	0.0	1215888	REC_START	n/a	n/a	n/a	n/a	4	-999	n/a	n/a	0	14	[0, 0, 0]	n/a	0	1	0	n/a	n/a	0.0	0	0	0	PAL2	0	R1074M
2318.895	5.017	1215888	REC_EVENT	0.0	n/a	VASE	FLUTE	4	2	VASE	<>	0	14	[0, 0, 0]	n/a	0	1	0	n/a	n/a	0.0	0	0	0	PAL2	0	R1074M
2323.912	0.017	1218397	REC_END	n/a	n/a	n/a	n/a	4	-999	n/a	n/a	-999	14	[0, 0, 0]	n/a	0	1	0	n/a	n/a	0.0	0	0	0	PAL2	0	R1074M
2323.929	0.25	1218405	TEST_ORIENT	n/a	n/a	BOOK	BATH	3	3	BOOK	n/a	0	14	[0, 0, 0]	n/a	0	1	0	n/a	n/a	0.0	0	0	0	PAL2	0	R1074M
2324.812	4.0	1218847	TEST_PROBE	n/a	wordpools/wordpool_EN.txt	BOOK	BATH	3	3	BOOK	n/a	0	14	[0, 0, 0]	n/a	0	1	0	n/a	n/a	0.0	0	0	0	PAL2	0	R1074M
2324.813	0.0	1218847	REC_START	n/a	n/a	n/a	n/a	3	-999	n/a	n/a	0	14	[0, 0, 0]	n/a	0	1	0	n/a	n/a	0.0	0	0	0	PAL2	0	R1074M
2324.813	5.007	1218847	REC_EVENT	0.0	n/a	BOOK	BATH	3	3	BOOK	<>	0	14	[0, 0, 0]	n/a	0	1	0	n/a	n/a	0.0	0	0	0	PAL2	0	R1074M
2329.82	0.01	1221350	REC_END	n/a	n/a	n/a	n/a	3	-999	n/a	n/a	-999	14	[0, 0, 0]	n/a	0	1	0	n/a	n/a	0.0	0	0	0	PAL2	0	R1074M
2329.83	0.25	1221355	TEST_ORIENT	n/a	n/a	BRUSH	JAIL	2	4	JAIL	n/a	0	14	[0, 0, 0]	n/a	0	1	0	n/a	n/a	0.0	0	0	0	PAL2	0	R1074M
2330.647	4.0	1221764	TEST_PROBE	n/a	wordpools/wordpool_EN.txt	BRUSH	JAIL	2	4	JAIL	n/a	0	14	[0, 0, 0]	n/a	0	1	0	n/a	n/a	0.0	0	0	0	PAL2	0	R1074M
2330.648	0.0	1221764	REC_START	n/a	n/a	n/a	n/a	2	-999	n/a	n/a	0	14	[0, 0, 0]	n/a	0	1	0	n/a	n/a	0.0	0	0	0	PAL2	0	R1074M
2330.648	5.007	1221764	REC_EVENT	0.0	n/a	BRUSH	JAIL	2	4	JAIL	<>	0	14	[0, 0, 0]	n/a	0	1	0	n/a	n/a	0.0	0	0	0	PAL2	0	R1074M
2335.655	0.01	1224268	REC_END	n/a	n/a	n/a	n/a	2	-999	n/a	n/a	-999	14	[0, 0, 0]	n/a	0	1	0	n/a	n/a	0.0	0	0	0	PAL2	0	R1074M
2335.665	0.25	1224273	TEST_ORIENT	n/a	n/a	ICE	PIE	5	5	PIE	n/a	0	14	[0, 0, 0]	n/a	0	1	0	n/a	n/a	0.0	0	0	0	PAL2	0	R1074M
2336.497	4.0	1224689	TEST_PROBE	n/a	wordpools/wordpool_EN.txt	ICE	PIE	5	5	PIE	n/a	0	14	[0, 0, 0]	n/a	0	1	0	n/a	n/a	0.0	0	0	0	PAL2	0	R1074M
2336.498	0.0	1224689	REC_START	n/a	n/a	n/a	n/a	5	-999	n/a	n/a	0	14	[0, 0, 0]	n/a	0	1	0	n/a	n/a	0.0	0	0	0	PAL2	0	R1074M
2336.498	5.008	1224689	REC_EVENT	0.0	n/a	ICE	PIE	5	5	PIE	<>	0	14	[0, 0, 0]	n/a	0	1	0	n/a	n/a	0.0	0	0	0	PAL2	0	R1074M
2341.506	0.01	1227193	REC_END	n/a	n/a	n/a	n/a	5	-999	n/a	n/a	-999	14	[0, 0, 0]	n/a	0	1	0	n/a	n/a	0.0	0	0	0	PAL2	0	R1074M
2341.516	0.25	1227198	TEST_ORIENT	n/a	n/a	MAP	SHELL	6	6	SHELL	n/a	0	14	[0, 0, 0]	n/a	0	1	0	n/a	n/a	0.0	0	0	0	PAL2	0	R1074M
2342.465	4.0	1227673	TEST_PROBE	n/a	wordpools/wordpool_EN.txt	MAP	SHELL	6	6	SHELL	n/a	0	14	[0, 0, 0]	n/a	0	1	0	n/a	n/a	0.0	0	0	0	PAL2	0	R1074M
2342.466	0.0	1227673	REC_START	n/a	n/a	n/a	n/a	6	-999	n/a	n/a	0	14	[0, 0, 0]	n/a	0	1	0	n/a	n/a	0.0	0	0	0	PAL2	0	R1074M
2342.466	5.007	1227673	REC_EVENT	0.0	n/a	MAP	SHELL	6	6	SHELL	<>	0	14	[0, 0, 0]	n/a	0	1	0	n/a	n/a	0.0	0	0	0	PAL2	0	R1074M
2347.473	5.453	1230176	REC_END	n/a	n/a	n/a	n/a	6	-999	n/a	n/a	-999	14	[0, 0, 0]	n/a	0	1	0	n/a	n/a	0.0	0	0	0	PAL2	0	R1074M
2352.926	10.443	1232903	ENCODING_START	n/a	n/a	n/a	n/a	0	-999	n/a	n/a	-999	15	[0, 0, 0]	n/a	0	0	0	n/a	n/a	0.0	0	0	0	PAL2	0	R1074M
2363.369	0.25	1238124	STUDY_ORIENT	n/a	n/a	VINE	SUN	1	1	SUN	n/a	0	15	[0, 0, 0]	n/a	0	0	0	n/a	n/a	0.0	0	0	0	PAL2	0	R1074M
2364.303	4.0	1238591	STUDY_PAIR	n/a	wordpools/wordpool_EN.txt	VINE	SUN	1	1	SUN	n/a	0	15	[0, 0, 0]	n/a	0	0	0	n/a	n/a	0.0	0	0	0	PAL2	0	R1074M
2369.337	0.25	1241108	STUDY_ORIENT	n/a	n/a	PEARL	DUCK	2	6	PEARL	n/a	0	15	[0, 0, 0]	n/a	0	0	0	n/a	n/a	0.0	0	0	0	PAL2	0	R1074M
2370.237	4.0	1241558	STUDY_PAIR	n/a	wordpools/wordpool_EN.txt	PEARL	DUCK	2	6	PEARL	n/a	0	15	[0, 0, 0]	n/a	0	0	0	n/a	n/a	0.0	0	0	0	PAL2	0	R1074M
2375.255	0.25	1244067	STUDY_ORIENT	n/a	n/a	JUICE	JAR	3	3	JAR	JUICE	1	15	[0, 0, 0]	n/a	0	0	0	n/a	n/a	0.0	0	0	0	PAL2	0	R1074M
2376.105	4.0	1244492	STUDY_PAIR	n/a	wordpools/wordpool_EN.txt	JUICE	JAR	3	3	JAR	JUICE	1	15	[0, 0, 0]	n/a	0	0	0	n/a	n/a	0.0	0	0	0	PAL2	0	R1074M
2381.123	0.25	1247001	STUDY_ORIENT	n/a	n/a	TEA	WEB	4	4	TEA	n/a	0	15	[0, 0, 0]	n/a	0	0	0	n/a	n/a	0.0	0	0	0	PAL2	0	R1074M
2382.106	4.0	1247492	STUDY_PAIR	n/a	wordpools/wordpool_EN.txt	TEA	WEB	4	4	TEA	n/a	0	15	[0, 0, 0]	n/a	0	0	0	n/a	n/a	0.0	0	0	0	PAL2	0	R1074M
2387.124	0.25	1250001	STUDY_ORIENT	n/a	n/a	BOX	BALL	5	5	BOX	BED	0	15	[0, 0, 0]	n/a	0	0	0	n/a	n/a	0.0	0	0	0	PAL2	0	R1074M
2388.058	4.0	1250468	STUDY_PAIR	n/a	wordpools/wordpool_EN.txt	BOX	BALL	5	5	BOX	BED	0	15	[0, 0, 0]	n/a	0	0	0	n/a	n/a	0.0	0	0	0	PAL2	0	R1074M
2393.092	0.25	1252985	STUDY_ORIENT	n/a	n/a	CORN	BED	6	2	CORN	n/a	0	15	[0, 0, 0]	n/a	0	0	0	n/a	n/a	0.0	0	0	0	PAL2	0	R1074M
2393.993	4.0	1253435	STUDY_PAIR	n/a	wordpools/wordpool_EN.txt	CORN	BED	6	2	CORN	n/a	0	15	[0, 0, 0]	n/a	0	0	0	n/a	n/a	0.0	0	0	0	PAL2	0	R1074M
2397.994	1.0	1255436	START	n/a	n/a	n/a	n/a	-999	-999	n/a	n/a	-999	15	[-999, -999, -999]	n/a	0	0	0	n/a	n/a	0.0	0	0	0	PAL2	0	R1074M
2398.994	0.017	1255936	MATH_START	n/a	n/a	n/a	n/a	-999	-999	n/a	n/a	-999	15	[0, 0, 0]	n/a	0	0	0	n/a	n/a	0.0	0	0	0	PAL2	0	R1074M
2399.011	6.835	1255944	PROB	6.803	n/a	n/a	n/a	-999	-999	n/a	n/a	-999	15	[8, 9, 2]	19	0	0	0	n/a	n/a	0.0	0	0	0	PAL2	0	R1074M
2405.846	5.366	1259361	PROB	5.335	n/a	n/a	n/a	-999	-999	n/a	n/a	-999	15	[2, 5, 6]	13	0	0	0	n/a	n/a	0.0	0	0	0	PAL2	0	R1074M
2411.212	9.289	1262044	PROB	9.289	n/a	n/a	n/a	-999	-999	n/a	n/a	-999	15	[5, 5, 8]	17	0	0	0	n/a	n/a	0.0	0	0	0	PAL2	0	R1074M
2420.501	0.014	1266688	STOP	n/a	n/a	n/a	n/a	-999	-999	n/a	n/a	-999	15	[-999, -999, -999]	n/a	0	0	0	n/a	n/a	0.0	0	0	0	PAL2	0	R1074M
2420.515	0.0	1266695	TEST_START	n/a	n/a	n/a	n/a	-999	-999	n/a	n/a	-999	15	[0, 0, 0]	n/a	0	0	0	n/a	n/a	0.0	0	0	0	PAL2	0	R1074M
2420.515	0.017	1266695	MATH_END	n/a	n/a	n/a	n/a	-999	-999	n/a	n/a	-999	15	[0, 0, 0]	n/a	0	0	0	n/a	n/a	0.0	0	0	0	PAL2	0	R1074M
2420.532	0.25	1266704	TEST_ORIENT	n/a	n/a	VINE	SUN	1	1	SUN	n/a	0	15	[0, 0, 0]	n/a	0	0	0	n/a	n/a	0.0	0	0	0	PAL2	0	R1074M
2421.398	4.0	1267137	TEST_PROBE	n/a	wordpools/wordpool_EN.txt	VINE	SUN	1	1	SUN	n/a	0	15	[0, 0, 0]	n/a	0	0	0	n/a	n/a	0.0	0	0	0	PAL2	0	R1074M
2421.398	0.0	1267137	REC_START	n/a	n/a	n/a	n/a	1	-999	n/a	n/a	0	15	[0, 0, 0]	n/a	0	0	0	n/a	n/a	0.0	0	0	0	PAL2	0	R1074M
2421.398	5.017	1267137	REC_EVENT	0.0	n/a	VINE	SUN	1	1	SUN	<>	0	15	[0, 0, 0]	n/a	0	0	0	n/a	n/a	0.0	0	0	0	PAL2	0	R1074M
2426.415	0.017	1269645	REC_END	n/a	n/a	n/a	n/a	1	-999	n/a	n/a	-999	15	[0, 0, 0]	n/a	0	0	0	n/a	n/a	0.0	0	0	0	PAL2	0	R1074M
2426.432	0.25	1269654	TEST_ORIENT	n/a	n/a	CORN	BED	6	2	CORN	n/a	0	15	[0, 0, 0]	n/a	0	0	0	n/a	n/a	0.0	0	0	0	PAL2	0	R1074M
2427.215	4.0	1270045	TEST_PROBE	n/a	wordpools/wordpool_EN.txt	CORN	BED	6	2	CORN	n/a	0	15	[0, 0, 0]	n/a	0	0	0	n/a	n/a	0.0	0	0	0	PAL2	0	R1074M
2427.216	0.0	1270046	REC_START	n/a	n/a	n/a	n/a	6	-999	n/a	n/a	0	15	[0, 0, 0]	n/a	0	0	0	n/a	n/a	0.0	0	0	0	PAL2	0	R1074M
2427.216	5.008	1270046	REC_EVENT	0.0	n/a	CORN	BED	6	2	CORN	<>	0	15	[0, 0, 0]	n/a	0	0	0	n/a	n/a	0.0	0	0	0	PAL2	0	R1074M
