onset	duration	sample	trial_type	response_time	stim_file	study_1	study_2	serialpos	probepos	probe_word	resp_word	correct	list	test	answer	stimulation	stim_list	stim_duration	anode_label	cathode_label	amplitude	pulse_freq	n_pulses	pulse_width	experiment	session	subject
0.0	60.04	288072	SESS_START	n/a	n/a	n/a	n/a	-999	-999	n/a	n/a	-999	-999	[0, 0, 0]	n/a	0	0	0	n/a	n/a	0.0	0	0	0	PAL2	1	R1003P
60.04	1.017	318091	START	n/a	n/a	n/a	n/a	-999	-999	n/a	n/a	-999	-1	[-999, -999, -999]	n/a	0	-999	0	n/a	n/a	0.0	0	0	0	PAL2	1	R1003P
61.057	2.95	318599	PROB	2.917	n/a	n/a	n/a	-999	-999	n/a	n/a	-999	-1	[7, 2, 5]	14	0	-999	0	n/a	n/a	0.0	0	0	0	PAL2	1	R1003P
64.007	4.6	320074	PROB	4.575	n/a	n/a	n/a	-999	-999	n/a	n/a	-999	-1	[1, 5, 7]	13	0	-999	0	n/a	n/a	0.0	0	0	0	PAL2	1	R1003P
68.607	2.935	322374	PROB	2.903	n/a	n/a	n/a	-999	-999	n/a	n/a	-999	-1	[9, 9, 1]	19	0	-999	0	n/a	n/a	0.0	0	0	0	PAL2	1	R1003P
71.542	3.501	323841	PROB	3.472	n/a	n/a	n/a	-999	-999	n/a	n/a	-999	-1	[9, 3, 2]	16	0	-999	0	n/a	n/a	0.0	0	0	0	PAL2	1	R1003P
75.043	4.451	325592	PROB	4.419	n/a	n/a	n/a	-999	-999	n/a	n/a	-999	-1	[8, 8, 7]	23	0	-999	0	n/a	n/a	0.0	0	0	0	PAL2	1	R1003P
79.494	3.808	327817	PROB	3.808	n/a	n/a	n/a	-999	-999	n/a	n/a	-999	-1	[9, 2, 4]	15	0	-999	0	n/a	n/a	0.0	0	0	0	PAL2	1	R1003P
83.302	38.72	329721	STOP	n/a	n/a	n/a	n/a	-999	-999	n/a	n/a	-999	-1	[-999, -999, -999]	n/a	0	-999	0	n/a	n/a	0.0	0	0	0	PAL2	1	R1003P
122.022	10.449	349080	ENCODING_START	n/a	n/a	n/a	n/a	0	-999	n/a	n/a	-999	1	[0, 0, 0]	n/a	0	1	0	n/a	n/a	0.0	0	0	0	PAL2	1	R1003P
132.471	0.25	354304	STUDY_ORIENT	n/a	n/a	FRUIT	DART	1	5	FRUIT	JAR	0	1	[0, 0, 0]	n/a	0	1	0	n/a	n/a	0.0	0	0	0	PAL2	1	R1003P
133.076	4.6	354607	STIM_ON	n/a	n/a	FRUIT	DART	1	5	FRUIT	JAR	0	1	[0, 0, 0]	n/a	1	1	4600	DA1	DA2	1500.0	50	230	300	PAL2	1	R1003P
133.287	4.0	354712	STUDY_PAIR	n/a	wordpools/wordpool_EN.txt	FRUIT	DART	1	5	FRUIT	JAR	0	1	[0, 0, 0]	n/a	1	1	4600	DA1	DA2	1500.0	50	230	300	PAL2	1	R1003P
138.305	0.25	357221	STUDY_ORIENT	n/a	n/a	SHEEP	JAIL	2	2	SHEEP	PASS	0	1	[0, 0, 0]	n/a	0	1	0	n/a	n/a	0.0	0	0	0	PAL2	1	R1003P
139.172	4.0	357655	STUDY_PAIR	n/a	wordpools/wordpool_EN.txt	SHEEP	JAIL	2	2	SHEEP	PASS	0	1	[0, 0, 0]	n/a	0	1	0	n/a	n/a	0.0	0	0	0	PAL2	1	R1003P
144.206	0.25	360171	STUDY_ORIENT	n/a	n/a	TEA	STRAW	3	3	STRAW	BELT	0	1	[0, 0, 0]	n/a	0	1	0	n/a	n/a	0.0	0	0	0	PAL2	1	R1003P
144.821	4.6	360479	STIM_ON	n/a	n/a	TEA	STRAW	3	3	STRAW	BELT	0	1	[0, 0, 0]	n/a	1	1	4600	DA1	DA2	1500.0	50	230	300	PAL2	1	R1003P
145.023	4.0	360580	STUDY_PAIR	n/a	wordpools/wordpool_EN.txt	TEA	STRAW	3	3	STRAW	BELT	0	1	[0, 0, 0]	n/a	1	1	4600	DA1	DA2	1500.0	50	230	300	PAL2	1	R1003P
150.057	0.25	363097	STUDY_ORIENT	n/a	n/a	JUDGE	KITE	4	4	JUDGE	PASS	0	1	[0, 0, 0]	n/a	0	1	0	n/a	n/a	0.0	0	0	0	PAL2	1	R1003P
151.024	4.0	363580	STUDY_PAIR	n/a	wordpools/wordpool_EN.txt	JUDGE	KITE	4	4	JUDGE	PASS	0	1	[0, 0, 0]	n/a	0	1	0	n/a	n/a	0.0	0	0	0	PAL2	1	R1003P
156.041	0.25	366089	STUDY_ORIENT	n/a	n/a	FLAME	TOOL	5	1	TOOL	PASS	0	1	[0, 0, 0]	n/a	0	1	0	n/a	n/a	0.0	0	0	0	PAL2	1	R1003P
156.692	4.6	366414	STIM_ON	n/a	n/a	FLAME	TOOL	5	1	TOOL	PASS	0	1	[0, 0, 0]	n/a	1	1	4600	DA1	DA2	1500.0	50	230	300	PAL2	1	R1003P
156.909	4.0	366523	STUDY_PAIR	n/a	wordpools/wordpool_EN.txt	FLAME	TOOL	5	1	TOOL	PASS	0	1	[0, 0, 0]	n/a	1	1	4600	DA1	DA2	1500.0	50	230	300	PAL2	1	R1003P
161.943	0.25	369040	STUDY_ORIENT	n/a	n/a	PALM	SEAT	6	6	PALM	PASS	0	1	[0, 0, 0]	n/a	0	1	0	n/a	n/a	0.0	0	0	0	PAL2	1	R1003P
162.759	4.0	369448	STUDY_PAIR	n/a	wordpools/wordpool_EN.txt	PALM	SEAT	6	6	PALM	PASS	0	1	[0, 0, 0]	n/a	0	1	0	n/a	n/a	0.0	0	0	0	PAL2	1	R1003P
166.777	0.999	371456	START	n/a	n/a	n/a	n/a	-999	-999	n/a	n/a	-999	1	[-999, -999, -999]	n/a	0	1	0	n/a	n/a	0.0	0	0	0	PAL2	1	R1003P
167.776	0.017	371956	MATH_START	n/a	n/a	n/a	n/a	-999	-999	n/a	n/a	-999	1	[0, 0, 0]	n/a	0	1	0	n/a	n/a	0.0	0	0	0	PAL2	1	R1003P
167.793	2.967	371964	PROB	2.932	n/a	n/a	n/a	-999	-999	n/a	n/a	-999	1	[7, 2, 9]	18	0	1	0	n/a	n/a	0.0	0	0	0	PAL2	1	R1003P
170.76	3.452	373448	PROB	3.43	n/a	n/a	n/a	-999	-999	n/a	n/a	-999	1	[1, 8, 4]	13	0	1	0	n/a	n/a	0.0	0	0	0	PAL2	1	R1003P
174.212	2.649	375174	PROB	2.625	n/a	n/a	n/a	-999	-999	n/a	n/a	-999	1	[8, 1, 1]	10	0	1	0	n/a	n/a	0.0	0	0	0	PAL2	1	R1003P
176.861	4.018	376498	PROB	3.992	n/a	n/a	n/a	-999	-999	n/a	n/a	-999	1	[5, 7, 7]	19	0	1	0	n/a	n/a	0.0	0	0	0	PAL2	1	R1003P
180.879	2.618	378507	PROB	2.591	n/a	n/a	n/a	-999	-999	n/a	n/a	-999	1	[6, 7, 4]	17	0	1	0	n/a	n/a	0.0	0	0	0	PAL2	1	R1003P
183.497	2.834	379816	PROB	2.805	n/a	n/a	n/a	-999	-999	n/a	n/a	-999	1	[7, 7, 2]	16	0	1	0	n/a	n/a	0.0	0	0	0	PAL2	1	R1003P
186.331	2.33	381233	PROB	2.33	n/a	n/a	n/a	-999	-999	n/a	n/a	-999	1	[6, 5, 5]	16	0	1	0	n/a	n/a	0.0	0	0	0	PAL2	1	R1003P
188.661	0.002	382398	STOP	n/a	n/a	n/a	n/a	-999	-999	n/a	n/a	-999	1	[-999, -999, -999]	n/a	0	1	0	n/a	n/a	0.0	0	0	0	PAL2	1	R1003P
188.663	0.0	382399	TEST_START	n/a	n/a	n/a	n/a	-999	-999	n/a	n/a	-999	1	[0, 0, 0]	n/a	0	1	0	n/a	n/a	0.0	0	0	0	PAL2	1	R1003P
188.663	0.017	382399	MATH_END	n/a	n/a	n/a	n/a	-999	-999	n/a	n/a	-999	1	[0, 0, 0]	n/a	0	1	0	n/a	n/a	0.0	0	0	0	PAL2	1	R1003P
188.68	0.25	382407	TEST_ORIENT	n/a	n/a	FLAME	TOOL	5	1	TOOL	PASS	0	1	[0, 0, 0]	n/a	0	1	0	n/a	n/a	0.0	0	0	0	PAL2	1	R1003P
189.697	4.0	382916	TEST_PROBE	n/a	wordpools/wordpool_EN.txt	FLAME	TOOL	5	1	TOOL	PASS	0	1	[0, 0, 0]	n/a	0	1	0	n/a	n/a	0.0	0	0	0	PAL2	1	R1003P
189.698	2.15	382916	REC_START	n/a	n/a	n/a	n/a	5	-999	n/a	PASS	0	1	[0, 0, 0]	n/a	0	1	0	n/a	n/a	0.0	0	0	0	PAL2	1	R1003P
191.848	2.858	383991	REC_EVENT	2.15	n/a	FLAME	TOOL	5	1	TOOL	PASS	0	1	[0, 0, 0]	n/a	0	1	0	n/a	n/a	0.0	0	0	0	PAL2	1	R1003P
194.706	0.009	385420	REC_END	n/a	n/a	n/a	n/a	5	-999	n/a	n/a	-999	1	[0, 0, 0]	n/a	0	1	0	n/a	n/a	0.0	0	0	0	PAL2	1	R1003P
194.715	0.25	385425	TEST_ORIENT	n/a	n/a	SHEEP	JAIL	2	2	SHEEP	PASS	0	1	[0, 0, 0]	n/a	0	1	0	n/a	n/a	0.0	0	0	0	PAL2	1	R1003P
195.583	4.0	385859	TEST_PROBE	n/a	wordpools/wordpool_EN.txt	SHEEP	JAIL	2	2	SHEEP	PASS	0	1	[0, 0, 0]	n/a	0	1	0	n/a	n/a	0.0	0	0	0	PAL2	1	R1003P
195.583	2.395	385859	REC_START	n/a	n/a	n/a	n/a	2	-999	n/a	PASS	0	1	[0, 0, 0]	n/a	0	1	0	n/a	n/a	0.0	0	0	0	PAL2	1	R1003P
197.978	2.621	387056	REC_EVENT	2.395	n/a	SHEEP	JAIL	2	2	SHEEP	PASS	0	1	[0, 0, 0]	n/a	0	1	0	n/a	n/a	0.0	0	0	0	PAL2	1	R1003P
200.599	0.017	388367	REC_END	n/a	n/a	n/a	n/a	2	-999	n/a	n/a	-999	1	[0, 0, 0]	n/a	0	1	0	n/a	n/a	0.0	0	0	0	PAL2	1	R1003P
200.616	0.25	388375	TEST_ORIENT	n/a	n/a	TEA	STRAW	3	3	STRAW	BELT	0	1	[0, 0, 0]	n/a	0	1	0	n/a	n/a	0.0	0	0	0	PAL2	1	R1003P
201.534	4.0	388834	TEST_PROBE	n/a	wordpools/wordpool_EN.txt	TEA	STRAW	3	3	STRAW	BELT	0	1	[0, 0, 0]	n/a	0	1	0	n/a	n/a	0.0	0	0	0	PAL2	1	R1003P
201.534	1.29	388834	REC_START	n/a	n/a	n/a	n/a	3	-999	n/a	BELT	0	1	[0, 0, 0]	n/a	0	1	0	n/a	n/a	0.0	0	0	0	PAL2	1	R1003P
202.824	3.727	389479	REC_EVENT	1.29	n/a	TEA	STRAW	3	3	STRAW	BELT	0	1	[0, 0, 0]	n/a	0	1	0	n/a	n/a	0.0	0	0	0	PAL2	1	R1003P
206.551	0.017	391342	REC_END	n/a	n/a	n/a	n/a	3	-999	n/a	n/a	-999	1	[0, 0, 0]	n/a	0	1	0	n/a	n/a	0.0	0	0	0	PAL2	1	R1003P
206.568	0.25	391351	TEST_ORIENT	n/a	n/a	JUDGE	KITE	4	4	JUDGE	PASS	0	1	[0, 0, 0]	n/a	0	1	0	n/a	n/a	0.0	0	0	0	PAL2	1	R1003P
207.485	0.0	391809	REC_START	n/a	n/a	n/a	n/a	4	-999	n/a	PASS	0	1	[0, 0, 0]	n/a	0	1	0	n/a	n/a	0.0	0	0	0	PAL2	1	R1003P
207.485	4.0	391809	TEST_PROBE	n/a	wordpools/wordpool_EN.txt	JUDGE	KITE	4	4	JUDGE	PASS	0	1	[0, 0, 0]	n/a	0	1	0	n/a	n/a	0.0	0	0	0	PAL2	1	R1003P
209.356	3.146	392745	REC_EVENT	1.871	n/a	JUDGE	KITE	4	4	JUDGE	PASS	0	1	[0, 0, 0]	n/a	0	1	0	n/a	n/a	0.0	0	0	0	PAL2	1	R1003P
212.502	0.017	394318	REC_END	n/a	n/a	n/a	n/a	4	-999	n/a	n/a	-999	1	[0, 0, 0]	n/a	0	1	0	n/a	n/a	0.0	0	0	0	PAL2	1	R1003P
212.519	0.25	394326	TEST_ORIENT	n/a	n/a	FRUIT	DART	1	5	FRUIT	JAR	0	1	[0, 0, 0]	n/a	0	1	0	n/a	n/a	0.0	0	0	0	PAL2	1	R1003P
213.536	4.0	394835	TEST_PROBE	n/a	wordpools/wordpool_EN.txt	FRUIT	DART	1	5	FRUIT	JAR	0	1	[0, 0, 0]	n/a	0	1	0	n/a	n/a	0.0	0	0	0	PAL2	1	R1003P
213.537	1.519	394835	REC_START	n/a	n/a	n/a	n/a	1	-999	n/a	JAR	0	1	[0, 0, 0]	n/a	0	1	0	n/a	n/a	0.0	0	0	0	PAL2	1	R1003P
215.056	3.497	395595	REC_EVENT	1.519	n/a	FRUIT	DART	1	5	FRUIT	JAR	0	1	[0, 0, 0]	n/a	0	1	0	n/a	n/a	0.0	0	0	0	PAL2	1	R1003P
218.553	0.017	397343	REC_END	n/a	n/a	n/a	n/a	1	-999	n/a	n/a	-999	1	[0, 0, 0]	n/a	0	1	0	n/a	n/a	0.0	0	0	0	PAL2	1	R1003P
218.57	0.25	397352	TEST_ORIENT	n/a	n/a	PALM	SEAT	6	6	PALM	PASS	0	1	[0, 0, 0]	n/a	0	1	0	n/a	n/a	0.0	0	0	0	PAL2	1	R1003P
219.603	0.0	397868	REC_START	n/a	n/a	n/a	n/a	6	-999	n/a	PASS	0	1	[0, 0, 0]	n/a	0	1	0	n/a	n/a	0.0	0	0	0	PAL2	1	R1003P
219.603	4.0	397868	TEST_PROBE	n/a	wordpools/wordpool_EN.txt	PALM	SEAT	6	6	PALM	PASS	0	1	[0, 0, 0]	n/a	0	1	0	n/a	n/a	0.0	0	0	0	PAL2	1	R1003P
220.998	3.622	398565	REC_EVENT	1.395	n/a	PALM	SEAT	6	6	PALM	PASS	0	1	[0, 0, 0]	n/a	0	1	0	n/a	n/a	0.0	0	0	0	PAL2	1	R1003P
224.62	1.073	400376	REC_END	n/a	n/a	n/a	n/a	6	-999	n/a	n/a	-999	1	[0, 0, 0]	n/a	0	1	0	n/a	n/a	0.0	0	0	0	PAL2	1	R1003P
225.693	10.448	400913	ENCODING_START	n/a	n/a	n/a	n/a	0	-999	n/a	n/a	-999	2	[0, 0, 0]	n/a	0	1	0	n/a	n/a	0.0	0	0	0	PAL2	1	R1003P
236.141	0.25	406137	STUDY_ORIENT	n/a	n/a	WHALE	PIE	1	5	PIE	PASS	0	2	[0, 0, 0]	n/a	0	1	0	n/a	n/a	0.0	0	0	0	PAL2	1	R1003P
236.849	4.6	406491	STIM_ON	n/a	n/a	WHALE	PIE	1	5	PIE	PASS	0	2	[0, 0, 0]	n/a	1	1	4600	DA1	DA2	1500.0	50	230	300	PAL2	1	R1003P
237.057	4.0	406595	STUDY_PAIR	n/a	wordpools/wordpool_EN.txt	WHALE	PIE	1	5	PIE	PASS	0	2	[0, 0, 0]	n/a	1	1	4600	DA1	DA2	1500.0	50	230	300	PAL2	1	R1003P
242.075	0.25	409103	STUDY_ORIENT	n/a	n/a	FUDGE	BENCH	2	4	BENCH	PASS	0	2	[0, 0, 0]	n/a	0	1	0	n/a	n/a	0.0	0	0	0	PAL2	1	R1003P
243.092	4.0	409612	STUDY_PAIR	n/a	wordpools/wordpool_EN.txt	FUDGE	BENCH	2	4	BENCH	PASS	0	2	[0, 0, 0]	n/a	0	1	0	n/a	n/a	0.0	0	0	0	PAL2	1	R1003P
248.126	0.25	412129	STUDY_ORIENT	n/a	n/a	ROOT	PARK	3	3	ROOT	PASS	0	2	[0, 0, 0]	n/a	0	1	0	n/a	n/a	0.0	0	0	0	PAL2	1	R1003P
248.826	4.6	412479	STIM_ON	n/a	n/a	ROOT	PARK	3	3	ROOT	PASS	0	2	[0, 0, 0]	n/a	1	1	4600	DA1	DA2	1500.0	50	230	300	PAL2	1	R1003P
249.043	4.0	412587	STUDY_PAIR	n/a	wordpools/wordpool_EN.txt	ROOT	PARK	3	3	ROOT	PASS	0	2	[0, 0, 0]	n/a	1	1	4600	DA1	DA2	1500.0	50	230	300	PAL2	1	R1003P
254.077	0.25	415104	STUDY_ORIENT	n/a	n/a	ARM	HOOF	4	2	HOOF	PASS	0	2	[0, 0, 0]	n/a	0	1	0	n/a	n/a	0.0	0	0	0	PAL2	1	R1003P
254.977	4.0	415554	STUDY_PAIR	n/a	wordpools/wordpool_EN.txt	ARM	HOOF	4	2	HOOF	PASS	0	2	[0, 0, 0]	n/a	0	1	0	n/a	n/a	0.0	0	0	0	PAL2	1	R1003P
259.995	0.25	418063	STUDY_ORIENT	n/a	n/a	INK	VAN	5	1	VAN	PARK	0	2	[0, 0, 0]	n/a	0	1	0	n/a	n/a	0.0	0	0	0	PAL2	1	R1003P
260.747	4.6	418439	STIM_ON	n/a	n/a	INK	VAN	5	1	VAN	PARK	0	2	[0, 0, 0]	n/a	1	1	4600	DA1	DA2	1500.0	50	230	300	PAL2	1	R1003P
260.962	4.0	418546	STUDY_PAIR	n/a	wordpools/wordpool_EN.txt	INK	VAN	5	1	VAN	PARK	0	2	[0, 0, 0]	n/a	1	1	4600	DA1	DA2	1500.0	50	230	300	PAL2	1	R1003P
265.996	0.25	421063	STUDY_ORIENT	n/a	n/a	CHALK	TRASH	6	6	TRASH	PASS	0	2	[0, 0, 0]	n/a	0	1	0	n/a	n/a	0.0	0	0	0	PAL2	1	R1003P
266.963	4.0	421547	STUDY_PAIR	n/a	wordpools/wordpool_EN.txt	CHALK	TRASH	6	6	TRASH	PASS	0	2	[0, 0, 0]	n/a	0	1	0	n/a	n/a	0.0	0	0	0	PAL2	1	R1003P
270.964	1.0	423547	START	n/a	n/a	n/a	n/a	-999	-999	n/a	n/a	-999	2	[-999, -999, -999]	n/a	0	1	0	n/a	n/a	0.0	0	0	0	PAL2	1	R1003P
271.964	0.017	424047	MATH_START	n/a	n/a	n/a	n/a	-999	-999	n/a	n/a	-999	2	[0, 0, 0]	n/a	0	1	0	n/a	n/a	0.0	0	0	0	PAL2	1	R1003P
271.981	5.951	424056	PROB	5.929	n/a	n/a	n/a	-999	-999	n/a	n/a	-999	2	[2, 5, 6]	13	0	1	0	n/a	n/a	0.0	0	0	0	PAL2	1	R1003P
277.932	1.883	427031	PROB	1.857	n/a	n/a	n/a	-999	-999	n/a	n/a	-999	2	[9, 1, 3]	13	0	1	0	n/a	n/a	0.0	0	0	0	PAL2	1	R1003P
279.815	2.618	427972	PROB	2.591	n/a	n/a	n/a	-999	-999	n/a	n/a	-999	2	[4, 5, 1]	10	0	1	0	n/a	n/a	0.0	0	0	0	PAL2	1	R1003P
282.433	3.617	429281	PROB	3.597	n/a	n/a	n/a	-999	-999	n/a	n/a	-999	2	[3, 8, 6]	17	0	1	0	n/a	n/a	0.0	0	0	0	PAL2	1	R1003P
286.05	3.101	431090	PROB	3.076	n/a	n/a	n/a	-999	-999	n/a	n/a	-999	2	[4, 9, 5]	18	0	1	0	n/a	n/a	0.0	0	0	0	PAL2	1	R1003P
289.151	6.383	432640	PROB	6.383	n/a	n/a	n/a	-999	-999	n/a	n/a	-999	2	[9, 4, 8]	21	0	1	0	n/a	n/a	0.0	0	0	0	PAL2	1	R1003P
295.534	0.018	435832	STOP	n/a	n/a	n/a	n/a	-999	-999	n/a	n/a	-999	2	[-999, -999, -999]	n/a	0	1	0	n/a	n/a	0.0	0	0	0	PAL2	1	R1003P
295.552	0.0	435841	MATH_END	n/a	n/a	n/a	n/a	-999	-999	n/a	n/a	-999	2	[0, 0, 0]	n/a	0	1	0	n/a	n/a	0.0	0	0	0	PAL2	1	R1003P
295.552	0.017	435841	TEST_START	n/a	n/a	n/a	n/a	-999	-999	n/a	n/a	-999	2	[0, 0, 0]	n/a	0	1	0	n/a	n/a	0.0	0	0	0	PAL2	1	R1003P
295.569	0.25	435849	TEST_ORIENT	n/a	n/a	INK	VAN	5	1	VAN	PARK	0	2	[0, 0, 0]	n/a	0	1	0	n/a	n/a	0.0	0	0	0	PAL2	1	R1003P
296.385	4.0	436257	TEST_PROBE	n/a	wordpools/wordpool_EN.txt	INK	VAN	5	1	VAN	PARK	0	2	[0, 0, 0]	n/a	0	1	0	n/a	n/a	0.0	0	0	0	PAL2	1	R1003P
296.386	1.922	436258	REC_START	n/a	n/a	n/a	n/a	5	-999	n/a	PARK	0	2	[0, 0, 0]	n/a	0	1	0	n/a	n/a	0.0	0	0	0	PAL2	1	R1003P
298.308	3.088	437218	REC_EVENT	1.922	n/a	INK	VAN	5	1	VAN	PARK	0	2	[0, 0, 0]	n/a	0	1	0	n/a	n/a	0.0	0	0	0	PAL2	1	R1003P
301.396	0.024	438762	REC_END	n/a	n/a	n/a	n/a	5	-999	n/a	n/a	-999	2	[0, 0, 0]	n/a	0	1	0	n/a	n/a	0.0	0	0	0	PAL2	1	R1003P
301.42	0.25	438774	TEST_ORIENT	n/a	n/a	ARM	HOOF	4	2	HOOF	PASS	0	2	[0, 0, 0]	n/a	0	1	0	n/a	n/a	0.0	0	0	0	PAL2	1	R1003P
302.22	4.0	439174	TEST_PROBE	n/a	wordpools/wordpool_EN.txt	ARM	HOOF	4	2	HOOF	PASS	0	2	[0, 0, 0]	n/a	0	1	0	n/a	n/a	0.0	0	0	0	PAL2	1	R1003P
302.22	1.363	439174	REC_START	n/a	n/a	n/a	n/a	4	-999	n/a	PASS	0	2	[0, 0, 0]	n/a	0	1	0	n/a	n/a	0.0	0	0	0	PAL2	1	R1003P
303.583	3.654	439856	REC_EVENT	1.363	n/a	ARM	HOOF	4	2	HOOF	PASS	0	2	[0, 0, 0]	n/a	0	1	0	n/a	n/a	0.0	0	0	0	PAL2	1	R1003P
307.237	0.017	441683	REC_END	n/a	n/a	n/a	n/a	4	-999	n/a	n/a	-999	2	[0, 0, 0]	n/a	0	1	0	n/a	n/a	0.0	0	0	0	PAL2	1	R1003P
307.254	0.25	441691	TEST_ORIENT	n/a	n/a	ROOT	PARK	3	3	ROOT	PASS	0	2	[0, 0, 0]	n/a	0	1	0	n/a	n/a	0.0	0	0	0	PAL2	1	R1003P
308.088	4.0	442108	TEST_PROBE	n/a	wordpools/wordpool_EN.txt	ROOT	PARK	3	3	ROOT	PASS	0	2	[0, 0, 0]	n/a	0	1	0	n/a	n/a	0.0	0	0	0	PAL2	1	R1003P
308.088	1.347	442108	REC_START	n/a	n/a	n/a	n/a	3	-999	n/a	PASS	0	2	[0, 0, 0]	n/a	0	1	0	n/a	n/a	0.0	0	0	0	PAL2	1	R1003P
309.435	3.67	442782	REC_EVENT	1.347	n/a	ROOT	PARK	3	3	ROOT	PASS	0	2	[0, 0, 0]	n/a	0	1	0	n/a	n/a	0.0	0	0	0	PAL2	1	R1003P
313.105	0.017	444617	REC_END	n/a	n/a	n/a	n/a	3	-999	n/a	n/a	-999	2	[0, 0, 0]	n/a	0	1	0	n/a	n/a	0.0	0	0	0	PAL2	1	R1003P
313.122	0.25	444625	TEST_ORIENT	n/a	n/a	FUDGE	BENCH	2	4	BENCH	PASS	0	2	[0, 0, 0]	n/a	0	1	0	n/a	n/a	0.0	0	0	0	PAL2	1	R1003P
313.939	4.0	445034	TEST_PROBE	n/a	wordpools/wordpool_EN.txt	FUDGE	BENCH	2	4	BENCH	PASS	0	2	[0, 0, 0]	n/a	0	1	0	n/a	n/a	0.0	0	0	0	PAL2	1	R1003P
313.939	1.888	445034	REC_START	n/a	n/a	n/a	n/a	2	-999	n/a	PASS	0	2	[0, 0, 0]	n/a	0	1	0	n/a	n/a	0.0	0	0	0	PAL2	1	R1003P
315.827	3.129	445978	REC_EVENT	1.888	n/a	FUDGE	BENCH	2	4	BENCH	PASS	0	2	[0, 0, 0]	n/a	0	1	0	n/a	n/a	0.0	0	0	0	PAL2	1	R1003P
318.956	0.017	447542	REC_END	n/a	n/a	n/a	n/a	2	-999	n/a	n/a	-999	2	[0, 0, 0]	n/a	0	1	0	n/a	n/a	0.0	0	0	0	PAL2	1	R1003P
318.973	0.25	447550	TEST_ORIENT	n/a	n/a	WHALE	PIE	1	5	PIE	PASS	0	2	[0, 0, 0]	n/a	0	1	0	n/a	n/a	0.0	0	0	0	PAL2	1	R1003P
319.889	4.0	448008	TEST_PROBE	n/a	wordpools/wordpool_EN.txt	WHALE	PIE	1	5	PIE	PASS	0	2	[0, 0, 0]	n/a	0	1	0	n/a	n/a	0.0	0	0	0	PAL2	1	R1003P
319.889	3.02	448008	REC_START	n/a	n/a	n/a	n/a	1	-999	n/a	PASS	0	2	[0, 0, 0]	n/a	0	1	0	n/a	n/a	0.0	0	0	0	PAL2	1	R1003P
322.909	1.998	449518	REC_EVENT	3.02	n/a	WHALE	PIE	1	5	PIE	PASS	0	2	[0, 0, 0]	n/a	0	1	0	n/a	n/a	0.0	0	0	0	PAL2	1	R1003P
324.907	0.017	450517	REC_END	n/a	n/a	n/a	n/a	1	-999	n/a	n/a	-999	2	[0, 0, 0]	n/a	0	1	0	n/a	n/a	0.0	0	0	0	PAL2	1	R1003P
324.924	0.25	450526	TEST_ORIENT	n/a	n/a	CHALK	TRASH	6	6	TRASH	PASS	0	2	[0, 0, 0]	n/a	0	1	0	n/a	n/a	0.0	0	0	0	PAL2	1	R1003P
325.723	4.0	450925	TEST_PROBE	n/a	wordpools/wordpool_EN.txt	CHALK	TRASH	6	6	TRASH	PASS	0	2	[0, 0, 0]	n/a	0	1	0	n/a	n/a	0.0	0	0	0	PAL2	1	R1003P
325.724	2.383	450926	REC_START	n/a	n/a	n/a	n/a	6	-999	n/a	PASS	0	2	[0, 0, 0]	n/a	0	1	0	n/a	n/a	0.0	0	0	0	PAL2	1	R1003P
328.107	2.627	452117	REC_EVENT	2.383	n/a	CHALK	TRASH	6	6	TRASH	PASS	0	2	[0, 0, 0]	n/a	0	1	0	n/a	n/a	0.0	0	0	0	PAL2	1	R1003P
330.734	0.943	453431	REC_END	n/a	n/a	n/a	n/a	6	-999	n/a	n/a	-999	2	[0, 0, 0]	n/a	0	1	0	n/a	n/a	0.0	0	0	0	PAL2	1	R1003P
331.677	10.451	453902	ENCODING_START	n/a	n/a	n/a	n/a	0	-999	n/a	n/a	-999	3	[0, 0, 0]	n/a	0	0	0	n/a	n/a	0.0	0	0	0	PAL2	1	R1003P
342.128	0.25	459127	STUDY_ORIENT	n/a	n/a	APE	SLUSH	1	1	APE	MULE	0	3	[0, 0, 0]	n/a	0	0	0	n/a	n/a	0.0	0	0	0	PAL2	1	R1003P
343.094	4.0	459610	STUDY_PAIR	n/a	wordpools/wordpool_EN.txt	APE	SLUSH	1	1	APE	MULE	0	3	[0, 0, 0]	n/a	0	0	0	n/a	n/a	0.0	0	0	0	PAL2	1	R1003P
348.112	0.25	462119	STUDY_ORIENT	n/a	n/a	STAIR	JUICE	2	4	JUICE	PASS	0	3	[0, 0, 0]	n/a	0	0	0	n/a	n/a	0.0	0	0	0	PAL2	1	R1003P
348.912	4.0	462519	STUDY_PAIR	n/a	wordpools/wordpool_EN.txt	STAIR	JUICE	2	4	JUICE	PASS	0	3	[0, 0, 0]	n/a	0	0	0	n/a	n/a	0.0	0	0	0	PAL2	1	R1003P
353.93	0.25	465028	STUDY_ORIENT	n/a	n/a	TENT	OAR	3	3	OAR	PASS	0	3	[0, 0, 0]	n/a	0	0	0	n/a	n/a	0.0	0	0	0	PAL2	1	R1003P
354.712	4.0	465419	STUDY_PAIR	n/a	wordpools/wordpool_EN.txt	TENT	OAR	3	3	OAR	PASS	0	3	[0, 0, 0]	n/a	0	0	0	n/a	n/a	0.0	0	0	0	PAL2	1	R1003P
359.73	0.25	467928	STUDY_ORIENT	n/a	n/a	BAT	BIRD	4	2	BIRD	PASS	0	3	[0, 0, 0]	n/a	0	0	0	n/a	n/a	0.0	0	0	0	PAL2	1	R1003P
360.514	4.0	468320	STUDY_PAIR	n/a	wordpools/wordpool_EN.txt	BAT	BIRD	4	2	BIRD	PASS	0	3	[0, 0, 0]	n/a	0	0	0	n/a	n/a	0.0	0	0	0	PAL2	1	R1003P
365.532	0.25	470829	STUDY_ORIENT	n/a	n/a	MULE	CAPE	5	5	MULE	APE	0	3	[0, 0, 0]	n/a	0	0	0	n/a	n/a	0.0	0	0	0	PAL2	1	R1003P
366.332	4.0	471229	STUDY_PAIR	n/a	wordpools/wordpool_EN.txt	MULE	CAPE	5	5	MULE	APE	0	3	[0, 0, 0]	n/a	0	0	0	n/a	n/a	0.0	0	0	0	PAL2	1	R1003P
371.35	0.25	473738	STUDY_ORIENT	n/a	n/a	CASH	BOX	6	6	BOX	OAR	0	3	[0, 0, 0]	n/a	0	0	0	n/a	n/a	0.0	0	0	0	PAL2	1	R1003P
372.133	4.0	474129	STUDY_PAIR	n/a	wordpools/wordpool_EN.txt	CASH	BOX	6	6	BOX	OAR	0	3	[0, 0, 0]	n/a	0	0	0	n/a	n/a	0.0	0	0	0	PAL2	1	R1003P
376.134	1.0	476129	START	n/a	n/a	n/a	n/a	-999	-999	n/a	n/a	-999	3	[-999, -999, -999]	n/a	0	0	0	n/a	n/a	0.0	0	0	0	PAL2	1	R1003P
377.134	0.017	476629	MATH_START	n/a	n/a	n/a	n/a	-999	-999	n/a	n/a	-999	3	[0, 0, 0]	n/a	0	0	0	n/a	n/a	0.0	0	0	0	PAL2	1	R1003P
377.151	3.167	476638	PROB	3.135	n/a	n/a	n/a	-999	-999	n/a	n/a	-999	3	[2, 2, 9]	13	0	0	0	n/a	n/a	0.0	0	0	0	PAL2	1	R1003P
380.318	2.267	478221	PROB	2.24	n/a	n/a	n/a	-999	-999	n/a	n/a	-999	3	[7, 3, 5]	15	0	0	0	n/a	n/a	0.0	0	0	0	PAL2	1	R1003P
382.585	3.801	479355	PROB	3.773	n/a	n/a	n/a	-999	-999	n/a	n/a	-999	3	[1, 6, 3]	10	0	0	0	n/a	n/a	0.0	0	0	0	PAL2	1	R1003P
386.386	1.967	481255	PROB	1.94	n/a	n/a	n/a	-999	-999	n/a	n/a	-999	3	[2, 8, 3]	13	0	0	0	n/a	n/a	0.0	0	0	0	PAL2	1	R1003P
388.353	3.234	482239	PROB	3.205	n/a	n/a	n/a	-999	-999	n/a	n/a	-999	3	[1, 3, 5]	9	0	0	0	n/a	n/a	0.0	0	0	0	PAL2	1	R1003P
391.587	3.417	483856	PROB	3.387	n/a	n/a	n/a	-999	-999	n/a	n/a	-999	3	[2, 2, 5]	9	0	0	0	n/a	n/a	0.0	0	0	0	PAL2	1	R1003P
395.004	5.641	485564	PROB	5.641	n/a	n/a	n/a	-999	-999	n/a	n/a	-999	3	[4, 2, 5]	11	0	0	0	n/a	n/a	0.0	0	0	0	PAL2	1	R1003P
400.645	0.01	488384	STOP	n/a	n/a	n/a	n/a	-999	-999	n/a	n/a	-999	3	[-999, -999, -999]	n/a	0	0	0	n/a	n/a	0.0	0	0	0	PAL2	1	R1003P
400.655	0.0	488389	MATH_END	n/a	n/a	n/a	n/a	-999	-999	n/a	n/a	-999	3	[0, 0, 0]	n/a	0	0	0	n/a	n/a	0.0	0	0	0	PAL2	1	R1003P
400.655	0.016	488389	TEST_START	n/a	n/a	n/a	n/a	-999	-999	n/a	n/a	-999	3	[0, 0, 0]	n/a	0	0	0	n/a	n/a	0.0	0	0	0	PAL2	1	R1003P
400.671	0.25	488397	TEST_ORIENT	n/a	n/a	APE	SLUSH	1	1	APE	MULE	0	3	[0, 0, 0]	n/a	0	0	0	n/a	n/a	0.0	0	0	0	PAL2	1	R1003P
401.556	4.0	488840	TEST_PROBE	n/a	wordpools/wordpool_EN.txt	APE	SLUSH	1	1	APE	MULE	0	3	[0, 0, 0]	n/a	0	0	0	n/a	n/a	0.0	0	0	0	PAL2	1	R1003P
401.556	0.979	488840	REC_START	n/a	n/a	n/a	n/a	1	-999	n/a	MULE	0	3	[0, 0, 0]	n/a	0	0	0	n/a	n/a	0.0	0	0	0	PAL2	1	R1003P
402.535	4.038	489329	REC_EVENT	0.979	n/a	APE	SLUSH	1	1	APE	MULE	0	3	[0, 0, 0]	n/a	0	0	0	n/a	n/a	0.0	0	0	0	PAL2	1	R1003P
406.573	0.017	491348	REC_END	n/a	n/a	n/a	n/a	1	-999	n/a	n/a	-999	3	[0, 0, 0]	n/a	0	0	0	n/a	n/a	0.0	0	0	0	PAL2	1	R1003P
406.59	0.25	491357	TEST_ORIENT	n/a	n/a	BAT	BIRD	4	2	BIRD	PASS	0	3	[0, 0, 0]	n/a	0	0	0	n/a	n/a	0.0	0	0	0	PAL2	1	R1003P
407.507	0.0	491815	REC_START	n/a	n/a	n/a	n/a	4	-999	n/a	PASS	0	3	[0, 0, 0]	n/a	0	0	0	n/a	n/a	0.0	0	0	0	PAL2	1	R1003P
407.507	4.0	491815	TEST_PROBE	n/a	wordpools/wordpool_EN.txt	BAT	BIRD	4	2	BIRD	PASS	0	3	[0, 0, 0]	n/a	0	0	0	n/a	n/a	0.0	0	0	0	PAL2	1	R1003P
408.742	3.793	492433	REC_EVENT	1.235	n/a	BAT	BIRD	4	2	BIRD	PASS	0	3	[0, 0, 0]	n/a	0	0	0	n/a	n/a	0.0	0	0	0	PAL2	1	R1003P
412.535	0.023	494329	REC_END	n/a	n/a	n/a	n/a	4	-999	n/a	n/a	-999	3	[0, 0, 0]	n/a	0	0	0	n/a	n/a	0.0	0	0	0	PAL2	1	R1003P
412.558	0.25	494340	TEST_ORIENT	n/a	n/a	TENT	OAR	3	3	OAR	PASS	0	3	[0, 0, 0]	n/a	0	0	0	n/a	n/a	0.0	0	0	0	PAL2	1	R1003P
413.525	4.0	494824	TEST_PROBE	n/a	wordpools/wordpool_EN.txt	TENT	OAR	3	3	OAR	PASS	0	3	[0, 0, 0]	n/a	0	0	0	n/a	n/a	0.0	0	0	0	PAL2	1	R1003P
413.525	1.37	494824	REC_START	n/a	n/a	n/a	n/a	3	-999	n/a	PASS	0	3	[0, 0, 0]	n/a	0	0	0	n/a	n/a	0.0	0	0	0	PAL2	1	R1003P
414.895	3.647	495509	REC_EVENT	1.37	n/a	TENT	OAR	3	3	OAR	PASS	0	3	[0, 0, 0]	n/a	0	0	0	n/a	n/a	0.0	0	0	0	PAL2	1	R1003P
418.542	0.017	497332	REC_END	n/a	n/a	n/a	n/a	3	-999	n/a	n/a	-999	3	[0, 0, 0]	n/a	0	0	0	n/a	n/a	0.0	0	0	0	PAL2	1	R1003P
418.559	0.25	497341	TEST_ORIENT	n/a	n/a	STAIR	JUICE	2	4	JUICE	PASS	0	3	[0, 0, 0]	n/a	0	0	0	n/a	n/a	0.0	0	0	0	PAL2	1	R1003P
419.576	0.0	497849	REC_START	n/a	n/a	n/a	n/a	2	-999	n/a	PASS	0	3	[0, 0, 0]	n/a	0	0	0	n/a	n/a	0.0	0	0	0	PAL2	1	R1003P
419.576	4.0	497849	TEST_PROBE	n/a	wordpools/wordpool_EN.txt	STAIR	JUICE	2	4	JUICE	PASS	0	3	[0, 0, 0]	n/a	0	0	0	n/a	n/a	0.0	0	0	0	PAL2	1	R1003P
422.315	2.278	499219	REC_EVENT	2.739	n/a	STAIR	JUICE	2	4	JUICE	PASS	0	3	[0, 0, 0]	n/a	0	0	0	n/a	n/a	0.0	0	0	0	PAL2	1	R1003P
424.593	0.016	500358	REC_END	n/a	n/a	n/a	n/a	2	-999	n/a	n/a	-999	3	[0, 0, 0]	n/a	0	0	0	n/a	n/a	0.0	0	0	0	PAL2	1	R1003P
424.609	0.25	500366	TEST_ORIENT	n/a	n/a	MULE	CAPE	5	5	MULE	APE	0	3	[0, 0, 0]	n/a	0	0	0	n/a	n/a	0.0	0	0	0	PAL2	1	R1003P
425.444	4.0	500783	TEST_PROBE	n/a	wordpools/wordpool_EN.txt	MULE	CAPE	5	5	MULE	APE	0	3	[0, 0, 0]	n/a	0	0	0	n/a	n/a	0.0	0	0	0	PAL2	1	R1003P
425.444	1.672	500783	REC_START	n/a	n/a	n/a	n/a	5	-999	n/a	APE	0	3	[0, 0, 0]	n/a	0	0	0	n/a	n/a	0.0	0	0	0	PAL2	1	R1003P
427.116	3.345	501619	REC_EVENT	1.672	n/a	MULE	CAPE	5	5	MULE	APE	0	3	[0, 0, 0]	n/a	0	0	0	n/a	n/a	0.0	0	0	0	PAL2	1	R1003P
430.461	0.017	503292	REC_END	n/a	n/a	n/a	n/a	5	-999	n/a	n/a	-999	3	[0, 0, 0]	n/a	0	0	0	n/a	n/a	0.0	0	0	0	PAL2	1	R1003P
430.478	0.25	503300	TEST_ORIENT	n/a	n/a	CASH	BOX	6	6	BOX	OAR	0	3	[0, 0, 0]	n/a	0	0	0	n/a	n/a	0.0	0	0	0	PAL2	1	R1003P
431.428	0.0	503775	REC_START	n/a	n/a	n/a	n/a	6	-999	n/a	OAR	0	3	[0, 0, 0]	n/a	0	0	0	n/a	n/a	0.0	0	0	0	PAL2	1	R1003P
431.428	4.0	503775	TEST_PROBE	n/a	wordpools/wordpool_EN.txt	CASH	BOX	6	6	BOX	OAR	0	3	[0, 0, 0]	n/a	0	0	0	n/a	n/a	0.0	0	0	0	PAL2	1	R1003P
433.354	3.092	504738	REC_EVENT	1.926	n/a	CASH	BOX	6	6	BOX	OAR	0	3	[0, 0, 0]	n/a	0	0	0	n/a	n/a	0.0	0	0	0	PAL2	1	R1003P
436.446	0.96	506284	REC_END	n/a	n/a	n/a	n/a	6	-999	n/a	n/a	-999	3	[0, 0, 0]	n/a	0	0	0	n/a	n/a	0.0	0	0	0	PAL2	1	R1003P
437.406	10.458	506764	ENCODING_START	n/a	n/a	n/a	n/a	0	-999	n/a	n/a	-999	4	[0, 0, 0]	n/a	0	1	0	n/a	n/a	0.0	0	0	0	PAL2	1	R1003P
447.864	0.25	511993	STUDY_ORIENT	n/a	n/a	FARM	BAND	1	5	FARM	PASS	0	4	[0, 0, 0]	n/a	0	1	0	n/a	n/a	0.0	0	0	0	PAL2	1	R1003P
448.697	4.0	512409	STUDY_PAIR	n/a	wordpools/wordpool_EN.txt	FARM	BAND	1	5	FARM	PASS	0	4	[0, 0, 0]	n/a	0	1	0	n/a	n/a	0.0	0	0	0	PAL2	1	R1003P
453.715	0.25	514918	STUDY_ORIENT	n/a	n/a	PIT	LAKE	2	4	LAKE	STOCK	0	4	[0, 0, 0]	n/a	0	1	0	n/a	n/a	0.0	0	0	0	PAL2	1	R1003P
454.48	4.6	515300	STIM_ON	n/a	n/a	PIT	LAKE	2	4	LAKE	STOCK	0	4	[0, 0, 0]	n/a	1	1	4600	DA1	DA2	1500.0	50	230	300	PAL2	1	R1003P
454.681	4.0	515401	STUDY_PAIR	n/a	wordpools/wordpool_EN.txt	PIT	LAKE	2	4	LAKE	STOCK	0	4	[0, 0, 0]	n/a	1	1	4600	DA1	DA2	1500.0	50	230	300	PAL2	1	R1003P
459.699	0.25	517910	STUDY_ORIENT	n/a	n/a	MAP	SMILE	3	1	MAP	PASS	0	4	[0, 0, 0]	n/a	0	1	0	n/a	n/a	0.0	0	0	0	PAL2	1	R1003P
460.517	4.0	518319	STUDY_PAIR	n/a	wordpools/wordpool_EN.txt	MAP	SMILE	3	1	MAP	PASS	0	4	[0, 0, 0]	n/a	0	1	0	n/a	n/a	0.0	0	0	0	PAL2	1	R1003P
465.551	0.25	520836	STUDY_ORIENT	n/a	n/a	SALT	TANK	4	6	TANK	PASS	0	4	[0, 0, 0]	n/a	0	1	0	n/a	n/a	0.0	0	0	0	PAL2	1	R1003P
466.149	4.6	521135	STIM_ON	n/a	n/a	SALT	TANK	4	6	TANK	PASS	0	4	[0, 0, 0]	n/a	1	1	4600	DA1	DA2	1500.0	50	230	300	PAL2	1	R1003P
466.351	4.0	521236	STUDY_PAIR	n/a	wordpools/wordpool_EN.txt	SALT	TANK	4	6	TANK	PASS	0	4	[0, 0, 0]	n/a	1	1	4600	DA1	DA2	1500.0	50	230	300	PAL2	1	R1003P
471.369	0.25	523744	STUDY_ORIENT	n/a	n/a	DOCK	KEY	5	3	DOCK	PASS	0	4	[0, 0, 0]	n/a	0	1	0	n/a	n/a	0.0	0	0	0	PAL2	1	R1003P
472.203	4.0	524161	STUDY_PAIR	n/a	wordpools/wordpool_EN.txt	DOCK	KEY	5	3	DOCK	PASS	0	4	[0, 0, 0]	n/a	0	1	0	n/a	n/a	0.0	0	0	0	PAL2	1	R1003P
477.237	0.25	526678	STUDY_ORIENT	n/a	n/a	CHAIR	STEAK	6	2	CHAIR	PASS	0	4	[0, 0, 0]	n/a	0	1	0	n/a	n/a	0.0	0	0	0	PAL2	1	R1003P
477.876	4.6	526998	STIM_ON	n/a	n/a	CHAIR	STEAK	6	2	CHAIR	PASS	0	4	[0, 0, 0]	n/a	1	1	4600	DA1	DA2	1500.0	50	230	300	PAL2	1	R1003P
478.087	4.0	527103	STUDY_PAIR	n/a	wordpools/wordpool_EN.txt	CHAIR	STEAK	6	2	CHAIR	PASS	0	4	[0, 0, 0]	n/a	1	1	4600	DA1	DA2	1500.0	50	230	300	PAL2	1	R1003P
482.088	1.0	529104	START	n/a	n/a	n/a	n/a	-999	-999	n/a	n/a	-999	4	[-999, -999, -999]	n/a	0	1	0	n/a	n/a	0.0	0	0	0	PAL2	1	R1003P
483.088	0.017	529604	MATH_START	n/a	n/a	n/a	n/a	-999	-999	n/a	n/a	-999	4	[0, 0, 0]	n/a	0	1	0	n/a	n/a	0.0	0	0	0	PAL2	1	R1003P
483.105	3.566	529612	PROB	3.54	n/a	n/a	n/a	-999	-999	n/a	n/a	-999	4	[6, 8, 3]	17	0	1	0	n/a	n/a	0.0	0	0	0	PAL2	1	R1003P
486.671	2.502	531395	PROB	2.471	n/a	n/a	n/a	-999	-999	n/a	n/a	-999	4	[7, 2, 8]	17	0	1	0	n/a	n/a	0.0	0	0	0	PAL2	1	R1003P
489.173	2.383	532646	PROB	2.353	n/a	n/a	n/a	-999	-999	n/a	n/a	-999	4	[2, 4, 5]	11	0	1	0	n/a	n/a	0.0	0	0	0	PAL2	1	R1003P
491.556	1.801	533837	PROB	1.778	n/a	n/a	n/a	-999	-999	n/a	n/a	-999	4	[4, 1, 1]	6	0	1	0	n/a	n/a	0.0	0	0	0	PAL2	1	R1003P
493.357	2.2	534738	PROB	2.177	n/a	n/a	n/a	-999	-999	n/a	n/a	-999	4	[9, 2, 1]	12	0	1	0	n/a	n/a	0.0	0	0	0	PAL2	1	R1003P
495.557	2.266	535838	PROB	2.232	n/a	n/a	n/a	-999	-999	n/a	n/a	-999	4	[7, 6, 4]	17	0	1	0	n/a	n/a	0.0	0	0	0	PAL2	1	R1003P
497.823	5.647	536971	PROB	5.647	n/a	n/a	n/a	-999	-999	n/a	n/a	-999	4	[6, 7, 5]	18	0	1	0	n/a	n/a	0.0	0	0	0	PAL2	1	R1003P
503.47	0.005	539794	STOP	n/a	n/a	n/a	n/a	-999	-999	n/a	n/a	-999	4	[-999, -999, -999]	n/a	0	1	0	n/a	n/a	0.0	0	0	0	PAL2	1	R1003P
503.475	0.0	539797	MATH_END	n/a	n/a	n/a	n/a	-999	-999	n/a	n/a	-999	4	[0, 0, 0]	n/a	0	1	0	n/a	n/a	0.0	0	0	0	PAL2	1	R1003P
503.475	0.017	539797	TEST_START	n/a	n/a	n/a	n/a	-999	-999	n/a	n/a	-999	4	[0, 0, 0]	n/a	0	1	0	n/a	n/a	0.0	0	0	0	PAL2	1	R1003P
503.492	0.25	539805	TEST_ORIENT	n/a	n/a	MAP	SMILE	3	1	MAP	PASS	0	4	[0, 0, 0]	n/a	0	1	0	n/a	n/a	0.0	0	0	0	PAL2	1	R1003P
504.392	4.0	540255	TEST_PROBE	n/a	wordpools/wordpool_EN.txt	MAP	SMILE	3	1	MAP	PASS	0	4	[0, 0, 0]	n/a	0	1	0	n/a	n/a	0.0	0	0	0	PAL2	1	R1003P
504.393	1.538	540256	REC_START	n/a	n/a	n/a	n/a	3	-999	n/a	PASS	0	4	[0, 0, 0]	n/a	0	1	0	n/a	n/a	0.0	0	0	0	PAL2	1	R1003P
505.931	3.473	541025	REC_EVENT	1.538	n/a	MAP	SMILE	3	1	MAP	PASS	0	4	[0, 0, 0]	n/a	0	1	0	n/a	n/a	0.0	0	0	0	PAL2	1	R1003P
509.404	0.023	542761	REC_END	n/a	n/a	n/a	n/a	3	-999	n/a	n/a	-999	4	[0, 0, 0]	n/a	0	1	0	n/a	n/a	0.0	0	0	0	PAL2	1	R1003P
509.427	0.25	542772	TEST_ORIENT	n/a	n/a	CHAIR	STEAK	6	2	CHAIR	PASS	0	4	[0, 0, 0]	n/a	0	1	0	n/a	n/a	0.0	0	0	0	PAL2	1	R1003P
510.343	4.0	543230	TEST_PROBE	n/a	wordpools/wordpool_EN.txt	CHAIR	STEAK	6	2	CHAIR	PASS	0	4	[0, 0, 0]	n/a	0	1	0	n/a	n/a	0.0	0	0	0	PAL2	1	R1003P
510.344	2.321	543231	REC_START	n/a	n/a	n/a	n/a	6	-999	n/a	PASS	0	4	[0, 0, 0]	n/a	0	1	0	n/a	n/a	0.0	0	0	0	PAL2	1	R1003P
512.665	2.689	544391	REC_EVENT	2.321	n/a	CHAIR	STEAK	6	2	CHAIR	PASS	0	4	[0, 0, 0]	n/a	0	1	0	n/a	n/a	0.0	0	0	0	PAL2	1	R1003P
515.354	0.024	545736	REC_END	n/a	n/a	n/a	n/a	6	-999	n/a	n/a	-999	4	[0, 0, 0]	n/a	0	1	0	n/a	n/a	0.0	0	0	0	PAL2	1	R1003P
515.378	0.25	545748	TEST_ORIENT	n/a	n/a	DOCK	KEY	5	3	DOCK	PASS	0	4	[0, 0, 0]	n/a	0	1	0	n/a	n/a	0.0	0	0	0	PAL2	1	R1003P
516.378	4.0	546248	TEST_PROBE	n/a	wordpools/wordpool_EN.txt	DOCK	KEY	5	3	DOCK	PASS	0	4	[0, 0, 0]	n/a	0	1	0	n/a	n/a	0.0	0	0	0	PAL2	1	R1003P
516.378	2.057	546248	REC_START	n/a	n/a	n/a	n/a	5	-999	n/a	PASS	0	4	[0, 0, 0]	n/a	0	1	0	n/a	n/a	0.0	0	0	0	PAL2	1	R1003P
518.435	2.96	547276	REC_EVENT	2.057	n/a	DOCK	KEY	5	3	DOCK	PASS	0	4	[0, 0, 0]	n/a	0	1	0	n/a	n/a	0.0	0	0	0	PAL2	1	R1003P
521.395	0.017	548756	REC_END	n/a	n/a	n/a	n/a	5	-999	n/a	n/a	-999	4	[0, 0, 0]	n/a	0	1	0	n/a	n/a	0.0	0	0	0	PAL2	1	R1003P
521.412	0.25	548765	TEST_ORIENT	n/a	n/a	PIT	LAKE	2	4	LAKE	STOCK	0	4	[0, 0, 0]	n/a	0	1	0	n/a	n/a	0.0	0	0	0	PAL2	1	R1003P
522.229	4.0	549173	TEST_PROBE	n/a	wordpools/wordpool_EN.txt	PIT	LAKE	2	4	LAKE	STOCK	0	4	[0, 0, 0]	n/a	0	1	0	n/a	n/a	0.0	0	0	0	PAL2	1	R1003P
522.23	1.593	549174	REC_START	n/a	n/a	n/a	n/a	2	-999	n/a	STOCK	0	4	[0, 0, 0]	n/a	0	1	0	n/a	n/a	0.0	0	0	0	PAL2	1	R1003P
523.823	3.423	549970	REC_EVENT	1.593	n/a	PIT	LAKE	2	4	LAKE	STOCK	0	4	[0, 0, 0]	n/a	0	1	0	n/a	n/a	0.0	0	0	0	PAL2	1	R1003P
527.246	0.017	551681	REC_END	n/a	n/a	n/a	n/a	2	-999	n/a	n/a	-999	4	[0, 0, 0]	n/a	0	1	0	n/a	n/a	0.0	0	0	0	PAL2	1	R1003P
527.263	0.25	551690	TEST_ORIENT	n/a	n/a	FARM	BAND	1	5	FARM	PASS	0	4	[0, 0, 0]	n/a	0	1	0	n/a	n/a	0.0	0	0	0	PAL2	1	R1003P
528.147	4.0	552132	TEST_PROBE	n/a	wordpools/wordpool_EN.txt	FARM	BAND	1	5	FARM	PASS	0	4	[0, 0, 0]	n/a	0	1	0	n/a	n/a	0.0	0	0	0	PAL2	1	R1003P
528.147	1.725	552132	REC_START	n/a	n/a	n/a	n/a	1	-999	n/a	PASS	0	4	[0, 0, 0]	n/a	0	1	0	n/a	n/a	0.0	0	0	0	PAL2	1	R1003P
529.872	3.303	552994	REC_EVENT	1.725	n/a	FARM	BAND	1	5	FARM	PASS	0	4	[0, 0, 0]	n/a	0	1	0	n/a	n/a	0.0	0	0	0	PAL2	1	R1003P
533.175	0.023	554646	REC_END	n/a	n/a	n/a	n/a	1	-999	n/a	n/a	-999	4	[0, 0, 0]	n/a	0	1	0	n/a	n/a	0.0	0	0	0	PAL2	1	R1003P
533.198	0.25	554657	TEST_ORIENT	n/a	n/a	SALT	TANK	4	6	TANK	PASS	0	4	[0, 0, 0]	n/a	0	1	0	n/a	n/a	0.0	0	0	0	PAL2	1	R1003P
534.148	4.0	555132	TEST_PROBE	n/a	wordpools/wordpool_EN.txt	SALT	TANK	4	6	TANK	PASS	0	4	[0, 0, 0]	n/a	0	1	0	n/a	n/a	0.0	0	0	0	PAL2	1	R1003P
534.148	1.03	555132	REC_START	n/a	n/a	n/a	n/a	4	-999	n/a	PASS	0	4	[0, 0, 0]	n/a	0	1	0	n/a	n/a	0.0	0	0	0	PAL2	1	R1003P
535.178	3.987	555647	REC_EVENT	1.03	n/a	SALT	TANK	4	6	TANK	PASS	0	4	[0, 0, 0]	n/a	0	1	0	n/a	n/a	0.0	0	0	0	PAL2	1	R1003P
539.165	81.777	557641	REC_END	n/a	n/a	n/a	n/a	4	-999	n/a	n/a	-999	4	[0, 0, 0]	n/a	0	1	0	n/a	n/a	0.0	0	0	0	PAL2	1	R1003P
620.942	10.441	598527	ENCODING_START	n/a	n/a	n/a	n/a	0	-999	n/a	n/a	-999	5	[0, 0, 0]	n/a	0	1	0	n/a	n/a	0.0	0	0	0	PAL2	1	R1003P
631.383	0.25	603747	STUDY_ORIENT	n/a	n/a	CLAY	BUSH	1	1	BUSH	CLAY	1	5	[0, 0, 0]	n/a	0	1	0	n/a	n/a	0.0	0	0	0	PAL2	1	R1003P
632.2	4.0	604156	STUDY_PAIR	n/a	wordpools/wordpool_EN.txt	CLAY	BUSH	1	1	BUSH	CLAY	1	5	[0, 0, 0]	n/a	0	1	0	n/a	n/a	0.0	0	0	0	PAL2	1	R1003P
637.218	0.25	606665	STUDY_ORIENT	n/a	n/a	BRICK	SAIL	2	6	SAIL	PASS	0	5	[0, 0, 0]	n/a	0	1	0	n/a	n/a	0.0	0	0	0	PAL2	1	R1003P
637.971	4.6	607041	STIM_ON	n/a	n/a	BRICK	SAIL	2	6	SAIL	PASS	0	5	[0, 0, 0]	n/a	1	1	4600	DA1	DA2	1500.0	50	230	300	PAL2	1	R1003P
638.185	4.0	607148	STUDY_PAIR	n/a	wordpools/wordpool_EN.txt	BRICK	SAIL	2	6	SAIL	PASS	0	5	[0, 0, 0]	n/a	1	1	4600	DA1	DA2	1500.0	50	230	300	PAL2	1	R1003P
643.219	0.25	609665	STUDY_ORIENT	n/a	n/a	VEST	BOMB	3	5	VEST	PASS	0	5	[0, 0, 0]	n/a	0	1	0	n/a	n/a	0.0	0	0	0	PAL2	1	R1003P
644.069	4.0	610090	STUDY_PAIR	n/a	wordpools/wordpool_EN.txt	VEST	BOMB	3	5	VEST	PASS	0	5	[0, 0, 0]	n/a	0	1	0	n/a	n/a	0.0	0	0	0	PAL2	1	R1003P
649.087	0.25	612599	STUDY_ORIENT	n/a	n/a	BOOT	BAG	4	4	BAG	PASS	0	5	[0, 0, 0]	n/a	0	1	0	n/a	n/a	0.0	0	0	0	PAL2	1	R1003P
649.75	4.6	612930	STIM_ON	n/a	n/a	BOOT	BAG	4	4	BAG	PASS	0	5	[0, 0, 0]	n/a	1	1	4600	DA1	DA2	1500.0	50	230	300	PAL2	1	R1003P
649.97	4.0	613040	STUDY_PAIR	n/a	wordpools/wordpool_EN.txt	BOOT	BAG	4	4	BAG	PASS	0	5	[0, 0, 0]	n/a	1	1	4600	DA1	DA2	1500.0	50	230	300	PAL2	1	R1003P
654.988	0.25	615549	STUDY_ORIENT	n/a	n/a	WAND	TOAST	5	3	WAND	SPARK	0	5	[0, 0, 0]	n/a	0	1	0	n/a	n/a	0.0	0	0	0	PAL2	1	R1003P
655.905	4.0	616008	STUDY_PAIR	n/a	wordpools/wordpool_EN.txt	WAND	TOAST	5	3	WAND	SPARK	0	5	[0, 0, 0]	n/a	0	1	0	n/a	n/a	0.0	0	0	0	PAL2	1	R1003P
660.939	0.25	618525	STUDY_ORIENT	n/a	n/a	SPARK	GATE	6	2	SPARK	PASS	0	5	[0, 0, 0]	n/a	0	1	0	n/a	n/a	0.0	0	0	0	PAL2	1	R1003P
661.629	4.6	618869	STIM_ON	n/a	n/a	SPARK	GATE	6	2	SPARK	PASS	0	5	[0, 0, 0]	n/a	1	1	4600	DA1	DA2	1500.0	50	230	300	PAL2	1	R1003P
661.838	4.0	618974	STUDY_PAIR	n/a	wordpools/wordpool_EN.txt	SPARK	GATE	6	2	SPARK	PASS	0	5	[0, 0, 0]	n/a	1	1	4600	DA1	DA2	1500.0	50	230	300	PAL2	1	R1003P
665.839	1.0	620974	START	n/a	n/a	n/a	n/a	-999	-999	n/a	n/a	-999	5	[-999, -999, -999]	n/a	0	1	0	n/a	n/a	0.0	0	0	0	PAL2	1	R1003P
666.839	0.017	621474	MATH_START	n/a	n/a	n/a	n/a	-999	-999	n/a	n/a	-999	5	[0, 0, 0]	n/a	0	1	0	n/a	n/a	0.0	0	0	0	PAL2	1	R1003P
666.856	2.718	621483	PROB	2.686	n/a	n/a	n/a	-999	-999	n/a	n/a	-999	5	[7, 3, 5]	15	0	1	0	n/a	n/a	0.0	0	0	0	PAL2	1	R1003P
669.574	2.717	622842	PROB	2.696	n/a	n/a	n/a	-999	-999	n/a	n/a	-999	5	[9, 9, 1]	19	0	1	0	n/a	n/a	0.0	0	0	0	PAL2	1	R1003P
672.291	2.251	624200	PROB	2.211	n/a	n/a	n/a	-999	-999	n/a	n/a	-999	5	[4, 6, 5]	15	0	1	0	n/a	n/a	0.0	0	0	0	PAL2	1	R1003P
674.542	3.316	625326	PROB	3.295	n/a	n/a	n/a	-999	-999	n/a	n/a	-999	5	[5, 9, 9]	23	0	1	0	n/a	n/a	0.0	0	0	0	PAL2	1	R1003P
677.858	2.75	626984	PROB	2.724	n/a	n/a	n/a	-999	-999	n/a	n/a	-999	5	[2, 6, 2]	10	0	1	0	n/a	n/a	0.0	0	0	0	PAL2	1	R1003P
680.608	2.001	628358	PROB	1.982	n/a	n/a	n/a	-999	-999	n/a	n/a	-999	5	[3, 2, 1]	6	0	1	0	n/a	n/a	0.0	0	0	0	PAL2	1	R1003P
682.609	2.668	629359	PROB	2.645	n/a	n/a	n/a	-999	-999	n/a	n/a	-999	5	[7, 8, 2]	17	0	1	0	n/a	n/a	0.0	0	0	0	PAL2	1	R1003P
685.277	2.36	630693	PROB	2.36	n/a	n/a	n/a	-999	-999	n/a	n/a	-999	5	[7, 1, 3]	11	0	1	0	n/a	n/a	0.0	0	0	0	PAL2	1	R1003P
687.637	0.006	631873	STOP	n/a	n/a	n/a	n/a	-999	-999	n/a	n/a	-999	5	[-999, -999, -999]	n/a	0	1	0	n/a	n/a	0.0	0	0	0	PAL2	1	R1003P
687.643	0.0	631876	MATH_END	n/a	n/a	n/a	n/a	-999	-999	n/a	n/a	-999	5	[0, 0, 0]	n/a	0	1	0	n/a	n/a	0.0	0	0	0	PAL2	1	R1003P
687.643	0.017	631876	TEST_START	n/a	n/a	n/a	n/a	-999	-999	n/a	n/a	-999	5	[0, 0, 0]	n/a	0	1	0	n/a	n/a	0.0	0	0	0	PAL2	1	R1003P
687.66	0.25	631884	TEST_ORIENT	n/a	n/a	CLAY	BUSH	1	1	BUSH	CLAY	1	5	[0, 0, 0]	n/a	0	1	0	n/a	n/a	0.0	0	0	0	PAL2	1	R1003P
688.461	4.0	632285	TEST_PROBE	n/a	wordpools/wordpool_EN.txt	CLAY	BUSH	1	1	BUSH	CLAY	1	5	[0, 0, 0]	n/a	0	1	0	n/a	n/a	0.0	0	0	0	PAL2	1	R1003P
688.462	0.937	632285	REC_START	n/a	n/a	n/a	n/a	1	-999	n/a	CLAY	1	5	[0, 0, 0]	n/a	0	1	0	n/a	n/a	0.0	0	0	0	PAL2	1	R1003P
689.399	4.079	632754	REC_EVENT	0.937	n/a	CLAY	BUSH	1	1	BUSH	CLAY	1	5	[0, 0, 0]	n/a	0	1	0	n/a	n/a	0.0	0	0	0	PAL2	1	R1003P
693.478	0.017	634793	REC_END	n/a	n/a	n/a	n/a	1	-999	n/a	n/a	-999	5	[0, 0, 0]	n/a	0	1	0	n/a	n/a	0.0	0	0	0	PAL2	1	R1003P
693.495	0.25	634802	TEST_ORIENT	n/a	n/a	SPARK	GATE	6	2	SPARK	PASS	0	5	[0, 0, 0]	n/a	0	1	0	n/a	n/a	0.0	0	0	0	PAL2	1	R1003P
694.496	4.0	635302	TEST_PROBE	n/a	wordpools/wordpool_EN.txt	SPARK	GATE	6	2	SPARK	PASS	0	5	[0, 0, 0]	n/a	0	1	0	n/a	n/a	0.0	0	0	0	PAL2	1	R1003P
694.496	1.786	635302	REC_START	n/a	n/a	n/a	n/a	6	-999	n/a	PASS	0	5	[0, 0, 0]	n/a	0	1	0	n/a	n/a	0.0	0	0	0	PAL2	1	R1003P
696.282	3.231	636195	REC_EVENT	1.786	n/a	SPARK	GATE	6	2	SPARK	PASS	0	5	[0, 0, 0]	n/a	0	1	0	n/a	n/a	0.0	0	0	0	PAL2	1	R1003P
699.513	0.017	637810	REC_END	n/a	n/a	n/a	n/a	6	-999	n/a	n/a	-999	5	[0, 0, 0]	n/a	0	1	0	n/a	n/a	0.0	0	0	0	PAL2	1	R1003P
699.53	0.25	637819	TEST_ORIENT	n/a	n/a	WAND	TOAST	5	3	WAND	SPARK	0	5	[0, 0, 0]	n/a	0	1	0	n/a	n/a	0.0	0	0	0	PAL2	1	R1003P
700.497	4.0	638302	TEST_PROBE	n/a	wordpools/wordpool_EN.txt	WAND	TOAST	5	3	WAND	SPARK	0	5	[0, 0, 0]	n/a	0	1	0	n/a	n/a	0.0	0	0	0	PAL2	1	R1003P
700.497	2.258	638302	REC_START	n/a	n/a	n/a	n/a	5	-999	n/a	SPARK	0	5	[0, 0, 0]	n/a	0	1	0	n/a	n/a	0.0	0	0	0	PAL2	1	R1003P
702.755	2.759	639431	REC_EVENT	2.258	n/a	WAND	TOAST	5	3	WAND	SPARK	0	5	[0, 0, 0]	n/a	0	1	0	n/a	n/a	0.0	0	0	0	PAL2	1	R1003P
705.514	0.017	640811	REC_END	n/a	n/a	n/a	n/a	5	-999	n/a	n/a	-999	5	[0, 0, 0]	n/a	0	1	0	n/a	n/a	0.0	0	0	0	PAL2	1	R1003P
705.531	0.25	640819	TEST_ORIENT	n/a	n/a	BOOT	BAG	4	4	BAG	PASS	0	5	[0, 0, 0]	n/a	0	1	0	n/a	n/a	0.0	0	0	0	PAL2	1	R1003P
706.548	4.0	641328	TEST_PROBE	n/a	wordpools/wordpool_EN.txt	BOOT	BAG	4	4	BAG	PASS	0	5	[0, 0, 0]	n/a	0	1	0	n/a	n/a	0.0	0	0	0	PAL2	1	R1003P
706.548	1.467	641328	REC_START	n/a	n/a	n/a	n/a	4	-999	n/a	PASS	0	5	[0, 0, 0]	n/a	0	1	0	n/a	n/a	0.0	0	0	0	PAL2	1	R1003P
708.015	3.55	642061	REC_EVENT	1.467	n/a	BOOT	BAG	4	4	BAG	PASS	0	5	[0, 0, 0]	n/a	0	1	0	n/a	n/a	0.0	0	0	0	PAL2	1	R1003P
711.565	0.017	643836	REC_END	n/a	n/a	n/a	n/a	4	-999	n/a	n/a	-999	5	[0, 0, 0]	n/a	0	1	0	n/a	n/a	0.0	0	0	0	PAL2	1	R1003P
711.582	0.25	643845	TEST_ORIENT	n/a	n/a	VEST	BOMB	3	5	VEST	PASS	0	5	[0, 0, 0]	n/a	0	1	0	n/a	n/a	0.0	0	0	0	PAL2	1	R1003P
712.532	4.0	644320	TEST_PROBE	n/a	wordpools/wordpool_EN.txt	VEST	BOMB	3	5	VEST	PASS	0	5	[0, 0, 0]	n/a	0	1	0	n/a	n/a	0.0	0	0	0	PAL2	1	R1003P
712.533	1.703	644320	REC_START	n/a	n/a	n/a	n/a	3	-999	n/a	PASS	0	5	[0, 0, 0]	n/a	0	1	0	n/a	n/a	0.0	0	0	0	PAL2	1	R1003P
714.236	3.297	645172	REC_EVENT	1.703	n/a	VEST	BOMB	3	5	VEST	PASS	0	5	[0, 0, 0]	n/a	0	1	0	n/a	n/a	0.0	0	0	0	PAL2	1	R1003P
717.533	0.017	646820	REC_END	n/a	n/a	n/a	n/a	3	-999	n/a	n/a	-999	5	[0, 0, 0]	n/a	0	1	0	n/a	n/a	0.0	0	0	0	PAL2	1	R1003P
717.55	0.25	646829	TEST_ORIENT	n/a	n/a	BRICK	SAIL	2	6	SAIL	PASS	0	5	[0, 0, 0]	n/a	0	1	0	n/a	n/a	0.0	0	0	0	PAL2	1	R1003P
718.567	4.0	647337	TEST_PROBE	n/a	wordpools/wordpool_EN.txt	BRICK	SAIL	2	6	SAIL	PASS	0	5	[0, 0, 0]	n/a	0	1	0	n/a	n/a	0.0	0	0	0	PAL2	1	R1003P
718.567	2.339	647337	REC_START	n/a	n/a	n/a	n/a	2	-999	n/a	PASS	0	5	[0, 0, 0]	n/a	0	1	0	n/a	n/a	0.0	0	0	0	PAL2	1	R1003P
720.906	2.678	648506	REC_EVENT	2.339	n/a	BRICK	SAIL	2	6	SAIL	PASS	0	5	[0, 0, 0]	n/a	0	1	0	n/a	n/a	0.0	0	0	0	PAL2	1	R1003P
723.584	1.157	649845	REC_END	n/a	n/a	n/a	n/a	2	-999	n/a	n/a	-999	5	[0, 0, 0]	n/a	0	1	0	n/a	n/a	0.0	0	0	0	PAL2	1	R1003P
724.741	10.446	650424	ENCODING_START	n/a	n/a	n/a	n/a	0	-999	n/a	n/a	-999	6	[0, 0, 0]	n/a	0	1	0	n/a	n/a	0.0	0	0	0	PAL2	1	R1003P
735.187	0.25	655647	STUDY_ORIENT	n/a	n/a	GOLD	CROWN	1	3	GOLD	PASS	0	6	[0, 0, 0]	n/a	0	1	0	n/a	n/a	0.0	0	0	0	PAL2	1	R1003P
736.037	4.0	656072	STUDY_PAIR	n/a	wordpools/wordpool_EN.txt	GOLD	CROWN	1	3	GOLD	PASS	0	6	[0, 0, 0]	n/a	0	1	0	n/a	n/a	0.0	0	0	0	PAL2	1	R1003P
741.071	0.25	658588	STUDY_ORIENT	n/a	n/a	FROG	DOLL	2	6	DOLL	PASS	0	6	[0, 0, 0]	n/a	0	1	0	n/a	n/a	0.0	0	0	0	PAL2	1	R1003P
742.071	4.0	659088	STUDY_PAIR	n/a	wordpools/wordpool_EN.txt	FROG	DOLL	2	6	DOLL	PASS	0	6	[0, 0, 0]	n/a	0	1	0	n/a	n/a	0.0	0	0	0	PAL2	1	R1003P
747.089	0.25	661597	STUDY_ORIENT	n/a	n/a	ROOF	SIGN	3	1	ROOF	BREAD	0	6	[0, 0, 0]	n/a	0	1	0	n/a	n/a	0.0	0	0	0	PAL2	1	R1003P
748.056	4.0	662081	STUDY_PAIR	n/a	wordpools/wordpool_EN.txt	ROOF	SIGN	3	1	ROOF	BREAD	0	6	[0, 0, 0]	n/a	0	1	0	n/a	n/a	0.0	0	0	0	PAL2	1	R1003P
753.09	0.25	664598	STUDY_ORIENT	n/a	n/a	NOSE	ROPE	4	2	ROPE	PASS	0	6	[0, 0, 0]	n/a	0	1	0	n/a	n/a	0.0	0	0	0	PAL2	1	R1003P
754.023	4.0	665064	STUDY_PAIR	n/a	wordpools/wordpool_EN.txt	NOSE	ROPE	4	2	ROPE	PASS	0	6	[0, 0, 0]	n/a	0	1	0	n/a	n/a	0.0	0	0	0	PAL2	1	R1003P
759.041	0.25	667573	STUDY_ORIENT	n/a	n/a	SEA	BREAD	5	5	SEA	BREAD	1	6	[0, 0, 0]	n/a	0	1	0	n/a	n/a	0.0	0	0	0	PAL2	1	R1003P
759.958	4.0	668031	STUDY_PAIR	n/a	wordpools/wordpool_EN.txt	SEA	BREAD	5	5	SEA	BREAD	1	6	[0, 0, 0]	n/a	0	1	0	n/a	n/a	0.0	0	0	0	PAL2	1	R1003P
764.976	0.25	670540	STUDY_ORIENT	n/a	n/a	SOAP	WAVE	6	4	SOAP	PASS	0	6	[0, 0, 0]	n/a	0	1	0	n/a	n/a	0.0	0	0	0	PAL2	1	R1003P
765.875	4.0	670990	STUDY_PAIR	n/a	wordpools/wordpool_EN.txt	SOAP	WAVE	6	4	SOAP	PASS	0	6	[0, 0, 0]	n/a	0	1	0	n/a	n/a	0.0	0	0	0	PAL2	1	R1003P
769.893	0.999	672999	START	n/a	n/a	n/a	n/a	-999	-999	n/a	n/a	-999	6	[-999, -999, -999]	n/a	0	1	0	n/a	n/a	0.0	0	0	0	PAL2	1	R1003P
770.892	0.018	673498	MATH_START	n/a	n/a	n/a	n/a	-999	-999	n/a	n/a	-999	6	[0, 0, 0]	n/a	0	1	0	n/a	n/a	0.0	0	0	0	PAL2	1	R1003P
770.91	4.018	673507	PROB	3.992	n/a	n/a	n/a	-999	-999	n/a	n/a	-999	6	[9, 8, 2]	19	0	1	0	n/a	n/a	0.0	0	0	0	PAL2	1	R1003P
774.928	1.966	675516	PROB	1.941	n/a	n/a	n/a	-999	-999	n/a	n/a	-999	6	[5, 5, 7]	17	0	1	0	n/a	n/a	0.0	0	0	0	PAL2	1	R1003P
776.894	2.335	676499	PROB	2.312	n/a	n/a	n/a	-999	-999	n/a	n/a	-999	6	[5, 1, 4]	10	0	1	0	n/a	n/a	0.0	0	0	0	PAL2	1	R1003P
779.229	3.85	677666	PROB	3.825	n/a	n/a	n/a	-999	-999	n/a	n/a	-999	6	[2, 4, 7]	13	0	1	0	n/a	n/a	0.0	0	0	0	PAL2	1	R1003P
783.079	2.317	679591	PROB	2.295	n/a	n/a	n/a	-999	-999	n/a	n/a	-999	6	[8, 9, 1]	18	0	1	0	n/a	n/a	0.0	0	0	0	PAL2	1	R1003P
785.396	3.168	680750	PROB	3.138	n/a	n/a	n/a	-999	-999	n/a	n/a	-999	6	[8, 3, 3]	14	0	1	0	n/a	n/a	0.0	0	0	0	PAL2	1	R1003P
788.564	1.898	682334	PROB	1.898	n/a	n/a	n/a	-999	-999	n/a	n/a	-999	6	[1, 1, 4]	6	0	1	0	n/a	n/a	0.0	0	0	0	PAL2	1	R1003P
790.462	0.019	683283	STOP	n/a	n/a	n/a	n/a	-999	-999	n/a	n/a	-999	6	[-999, -999, -999]	n/a	0	1	0	n/a	n/a	0.0	0	0	0	PAL2	1	R1003P
790.481	0.0	683292	MATH_END	n/a	n/a	n/a	n/a	-999	-999	n/a	n/a	-999	6	[0, 0, 0]	n/a	0	1	0	n/a	n/a	0.0	0	0	0	PAL2	1	R1003P
790.481	0.016	683292	TEST_START	n/a	n/a	n/a	n/a	-999	-999	n/a	n/a	-999	6	[0, 0, 0]	n/a	0	1	0	n/a	n/a	0.0	0	0	0	PAL2	1	R1003P
790.497	0.25	683300	TEST_ORIENT	n/a	n/a	ROOF	SIGN	3	1	ROOF	BREAD	0	6	[0, 0, 0]	n/a	0	1	0	n/a	n/a	0.0	0	0	0	PAL2	1	R1003P
791.179	4.6	683641	STIM_ON	n/a	n/a	ROOF	SIGN	3	1	ROOF	BREAD	0	6	[0, 0, 0]	n/a	1	1	4600	DA1	DA2	1500.0	50	230	300	PAL2	1	R1003P
791.381	4.0	683742	TEST_PROBE	n/a	wordpools/wordpool_EN.txt	ROOF	SIGN	3	1	ROOF	BREAD	0	6	[0, 0, 0]	n/a	1	1	4600	DA1	DA2	1500.0	50	230	300	PAL2	1	R1003P
791.381	2.022	683742	REC_START	n/a	n/a	n/a	n/a	3	-999	n/a	BREAD	0	6	[0, 0, 0]	n/a	1	1	4600	DA1	DA2	1500.0	50	230	300	PAL2	1	R1003P
793.403	2.995	684753	REC_EVENT	2.022	n/a	ROOF	SIGN	3	1	ROOF	BREAD	0	6	[0, 0, 0]	n/a	1	1	4600	DA1	DA2	1500.0	50	230	300	PAL2	1	R1003P
796.398	0.017	686250	REC_END	n/a	n/a	n/a	n/a	3	-999	n/a	n/a	-999	6	[0, 0, 0]	n/a	0	1	0	n/a	n/a	0.0	0	0	0	PAL2	1	R1003P
796.415	0.25	686259	TEST_ORIENT	n/a	n/a	NOSE	ROPE	4	2	ROPE	PASS	0	6	[0, 0, 0]	n/a	0	1	0	n/a	n/a	0.0	0	0	0	PAL2	1	R1003P
797.265	4.0	686684	TEST_PROBE	n/a	wordpools/wordpool_EN.txt	NOSE	ROPE	4	2	ROPE	PASS	0	6	[0, 0, 0]	n/a	0	1	0	n/a	n/a	0.0	0	0	0	PAL2	1	R1003P
797.266	1.83	686684	REC_START	n/a	n/a	n/a	n/a	4	-999	n/a	PASS	0	6	[0, 0, 0]	n/a	0	1	0	n/a	n/a	0.0	0	0	0	PAL2	1	R1003P
799.096	3.178	687599	REC_EVENT	1.83	n/a	NOSE	ROPE	4	2	ROPE	PASS	0	6	[0, 0, 0]	n/a	0	1	0	n/a	n/a	0.0	0	0	0	PAL2	1	R1003P
802.274	0.009	689188	REC_END	n/a	n/a	n/a	n/a	4	-999	n/a	n/a	-999	6	[0, 0, 0]	n/a	0	1	0	n/a	n/a	0.0	0	0	0	PAL2	1	R1003P
802.283	0.25	689193	TEST_ORIENT	n/a	n/a	GOLD	CROWN	1	3	GOLD	PASS	0	6	[0, 0, 0]	n/a	0	1	0	n/a	n/a	0.0	0	0	0	PAL2	1	R1003P
803.097	4.6	689600	STIM_ON	n/a	n/a	GOLD	CROWN	1	3	GOLD	PASS	0	6	[0, 0, 0]	n/a	1	1	4600	DA1	DA2	1500.0	50	230	300	PAL2	1	R1003P
803.3	0.0	689701	REC_START	n/a	n/a	n/a	n/a	1	-999	n/a	PASS	0	6	[0, 0, 0]	n/a	1	1	4600	DA1	DA2	1500.0	50	230	300	PAL2	1	R1003P
803.3	4.0	689701	TEST_PROBE	n/a	wordpools/wordpool_EN.txt	GOLD	CROWN	1	3	GOLD	PASS	0	6	[0, 0, 0]	n/a	1	1	4600	DA1	DA2	1500.0	50	230	300	PAL2	1	R1003P
805.688	2.629	690895	REC_EVENT	2.388	n/a	GOLD	CROWN	1	3	GOLD	PASS	0	6	[0, 0, 0]	n/a	1	1	4600	DA1	DA2	1500.0	50	230	300	PAL2	1	R1003P
808.317	0.017	692210	REC_END	n/a	n/a	n/a	n/a	1	-999	n/a	n/a	-999	6	[0, 0, 0]	n/a	0	1	0	n/a	n/a	0.0	0	0	0	PAL2	1	R1003P
808.334	0.25	692218	TEST_ORIENT	n/a	n/a	SOAP	WAVE	6	4	SOAP	PASS	0	6	[0, 0, 0]	n/a	0	1	0	n/a	n/a	0.0	0	0	0	PAL2	1	R1003P
809.268	4.0	692685	TEST_PROBE	n/a	wordpools/wordpool_EN.txt	SOAP	WAVE	6	4	SOAP	PASS	0	6	[0, 0, 0]	n/a	0	1	0	n/a	n/a	0.0	0	0	0	PAL2	1	R1003P
809.268	2.131	692685	REC_START	n/a	n/a	n/a	n/a	6	-999	n/a	PASS	0	6	[0, 0, 0]	n/a	0	1	0	n/a	n/a	0.0	0	0	0	PAL2	1	R1003P
811.399	2.886	693751	REC_EVENT	2.131	n/a	SOAP	WAVE	6	4	SOAP	PASS	0	6	[0, 0, 0]	n/a	0	1	0	n/a	n/a	0.0	0	0	0	PAL2	1	R1003P
814.285	0.017	695194	REC_END	n/a	n/a	n/a	n/a	6	-999	n/a	n/a	-999	6	[0, 0, 0]	n/a	0	1	0	n/a	n/a	0.0	0	0	0	PAL2	1	R1003P
814.302	0.25	695202	TEST_ORIENT	n/a	n/a	SEA	BREAD	5	5	SEA	BREAD	1	6	[0, 0, 0]	n/a	0	1	0	n/a	n/a	0.0	0	0	0	PAL2	1	R1003P
814.987	4.6	695544	STIM_ON	n/a	n/a	SEA	BREAD	5	5	SEA	BREAD	1	6	[0, 0, 0]	n/a	1	1	4600	DA1	DA2	1500.0	50	230	300	PAL2	1	R1003P
815.202	4.0	695652	TEST_PROBE	n/a	wordpools/wordpool_EN.txt	SEA	BREAD	5	5	SEA	BREAD	1	6	[0, 0, 0]	n/a	1	1	4600	DA1	DA2	1500.0	50	230	300	PAL2	1	R1003P
815.203	1.766	695652	REC_START	n/a	n/a	n/a	n/a	5	-999	n/a	BREAD	1	6	[0, 0, 0]	n/a	1	1	4600	DA1	DA2	1500.0	50	230	300	PAL2	1	R1003P
816.969	3.259	696535	REC_EVENT	1.766	n/a	SEA	BREAD	5	5	SEA	BREAD	1	6	[0, 0, 0]	n/a	1	1	4600	DA1	DA2	1500.0	50	230	300	PAL2	1	R1003P
820.228	0.008	698165	REC_END	n/a	n/a	n/a	n/a	5	-999	n/a	n/a	-999	6	[0, 0, 0]	n/a	0	1	0	n/a	n/a	0.0	0	0	0	PAL2	1	R1003P
820.236	0.25	698169	TEST_ORIENT	n/a	n/a	FROG	DOLL	2	6	DOLL	PASS	0	6	[0, 0, 0]	n/a	0	1	0	n/a	n/a	0.0	0	0	0	PAL2	1	R1003P
821.087	4.0	698594	TEST_PROBE	n/a	wordpools/wordpool_EN.txt	FROG	DOLL	2	6	DOLL	PASS	0	6	[0, 0, 0]	n/a	0	1	0	n/a	n/a	0.0	0	0	0	PAL2	1	R1003P
821.087	1.325	698594	REC_START	n/a	n/a	n/a	n/a	2	-999	n/a	PASS	0	6	[0, 0, 0]	n/a	0	1	0	n/a	n/a	0.0	0	0	0	PAL2	1	R1003P
822.412	3.692	699257	REC_EVENT	1.325	n/a	FROG	DOLL	2	6	DOLL	PASS	0	6	[0, 0, 0]	n/a	0	1	0	n/a	n/a	0.0	0	0	0	PAL2	1	R1003P
826.104	0.846	701103	REC_END	n/a	n/a	n/a	n/a	2	-999	n/a	n/a	-999	6	[0, 0, 0]	n/a	0	1	0	n/a	n/a	0.0	0	0	0	PAL2	1	R1003P
826.95	10.44	701526	ENCODING_START	n/a	n/a	n/a	n/a	0	-999	n/a	n/a	-999	7	[0, 0, 0]	n/a	0	1	0	n/a	n/a	0.0	0	0	0	PAL2	1	R1003P
837.39	0.25	706745	STUDY_ORIENT	n/a	n/a	SLEEVE	SHARK	1	1	SLEEVE	SWORD	0	7	[0, 0, 0]	n/a	0	1	0	n/a	n/a	0.0	0	0	0	PAL2	1	R1003P
838.173	4.0	707137	STUDY_PAIR	n/a	wordpools/wordpool_EN.txt	SLEEVE	SHARK	1	1	SLEEVE	SWORD	0	7	[0, 0, 0]	n/a	0	1	0	n/a	n/a	0.0	0	0	0	PAL2	1	R1003P
843.191	0.25	709646	STUDY_ORIENT	n/a	n/a	LEG	HOOK	2	6	HOOK	PASS	0	7	[0, 0, 0]	n/a	0	1	0	n/a	n/a	0.0	0	0	0	PAL2	1	R1003P
843.986	4.6	710043	STIM_ON	n/a	n/a	LEG	HOOK	2	6	HOOK	PASS	0	7	[0, 0, 0]	n/a	1	1	4600	DA1	DA2	1500.0	50	230	300	PAL2	1	R1003P
844.191	4.0	710146	STUDY_PAIR	n/a	wordpools/wordpool_EN.txt	LEG	HOOK	2	6	HOOK	PASS	0	7	[0, 0, 0]	n/a	1	1	4600	DA1	DA2	1500.0	50	230	300	PAL2	1	R1003P
849.225	0.25	712663	STUDY_ORIENT	n/a	n/a	VASE	CLIFF	3	5	CLIFF	PASS	0	7	[0, 0, 0]	n/a	0	1	0	n/a	n/a	0.0	0	0	0	PAL2	1	R1003P
850.159	4.0	713130	STUDY_PAIR	n/a	wordpools/wordpool_EN.txt	VASE	CLIFF	3	5	CLIFF	PASS	0	7	[0, 0, 0]	n/a	0	1	0	n/a	n/a	0.0	0	0	0	PAL2	1	R1003P
855.193	0.25	715646	STUDY_ORIENT	n/a	n/a	TOE	EAR	4	4	TOE	EAR	1	7	[0, 0, 0]	n/a	0	1	0	n/a	n/a	0.0	0	0	0	PAL2	1	R1003P
855.804	4.6	715952	STIM_ON	n/a	n/a	TOE	EAR	4	4	TOE	EAR	1	7	[0, 0, 0]	n/a	1	1	4600	DA1	DA2	1500.0	50	230	300	PAL2	1	R1003P
856.01	4.0	716055	STUDY_PAIR	n/a	wordpools/wordpool_EN.txt	TOE	EAR	4	4	TOE	EAR	1	7	[0, 0, 0]	n/a	1	1	4600	DA1	DA2	1500.0	50	230	300	PAL2	1	R1003P
861.044	0.25	718572	STUDY_ORIENT	n/a	n/a	SMOKE	SWORD	5	3	SWORD	PASS	0	7	[0, 0, 0]	n/a	0	1	0	n/a	n/a	0.0	0	0	0	PAL2	1	R1003P
861.928	4.0	719014	STUDY_PAIR	n/a	wordpools/wordpool_EN.txt	SMOKE	SWORD	5	3	SWORD	PASS	0	7	[0, 0, 0]	n/a	0	1	0	n/a	n/a	0.0	0	0	0	PAL2	1	R1003P
866.962	0.25	721531	STUDY_ORIENT	n/a	n/a	SUIT	LAWN	6	2	SUIT	PASS	0	7	[0, 0, 0]	n/a	0	1	0	n/a	n/a	0.0	0	0	0	PAL2	1	R1003P
867.566	4.6	721833	STIM_ON	n/a	n/a	SUIT	LAWN	6	2	SUIT	PASS	0	7	[0, 0, 0]	n/a	1	1	4600	DA1	DA2	1500.0	50	230	300	PAL2	1	R1003P
867.778	4.0	721939	STUDY_PAIR	n/a	wordpools/wordpool_EN.txt	SUIT	LAWN	6	2	SUIT	PASS	0	7	[0, 0, 0]	n/a	1	1	4600	DA1	DA2	1500.0	50	230	300	PAL2	1	R1003P
871.796	0.999	723948	START	n/a	n/a	n/a	n/a	-999	-999	n/a	n/a	-999	7	[-999, -999, -999]	n/a	0	1	0	n/a	n/a	0.0	0	0	0	PAL2	1	R1003P
872.795	0.017	724447	MATH_START	n/a	n/a	n/a	n/a	-999	-999	n/a	n/a	-999	7	[0, 0, 0]	n/a	0	1	0	n/a	n/a	0.0	0	0	0	PAL2	1	R1003P
872.812	7.236	724455	PROB	7.21	n/a	n/a	n/a	-999	-999	n/a	n/a	-999	7	[5, 6, 7]	18	0	1	0	n/a	n/a	0.0	0	0	0	PAL2	1	R1003P
880.048	3.484	728073	PROB	3.454	n/a	n/a	n/a	-999	-999	n/a	n/a	-999	7	[6, 6, 5]	17	0	1	0	n/a	n/a	0.0	0	0	0	PAL2	1	R1003P
883.532	2.4	729815	PROB	2.37	n/a	n/a	n/a	-999	-999	n/a	n/a	-999	7	[4, 7, 6]	17	0	1	0	n/a	n/a	0.0	0	0	0	PAL2	1	R1003P
885.932	3.518	731015	PROB	3.498	n/a	n/a	n/a	-999	-999	n/a	n/a	-999	7	[7, 5, 7]	19	0	1	0	n/a	n/a	0.0	0	0	0	PAL2	1	R1003P
889.45	4.524	732774	PROB	4.524	n/a	n/a	n/a	-999	-999	n/a	n/a	-999	7	[2, 9, 5]	16	0	1	0	n/a	n/a	0.0	0	0	0	PAL2	1	R1003P
893.974	0.01	735036	STOP	n/a	n/a	n/a	n/a	-999	-999	n/a	n/a	-999	7	[-999, -999, -999]	n/a	0	1	0	n/a	n/a	0.0	0	0	0	PAL2	1	R1003P
893.984	0.0	735041	MATH_END	n/a	n/a	n/a	n/a	-999	-999	n/a	n/a	-999	7	[0, 0, 0]	n/a	0	1	0	n/a	n/a	0.0	0	0	0	PAL2	1	R1003P
893.984	0.017	735041	TEST_START	n/a	n/a	n/a	n/a	-999	-999	n/a	n/a	-999	7	[0, 0, 0]	n/a	0	1	0	n/a	n/a	0.0	0	0	0	PAL2	1	R1003P
894.001	0.25	735049	TEST_ORIENT	n/a	n/a	SLEEVE	SHARK	1	1	SLEEVE	SWORD	0	7	[0, 0, 0]	n/a	0	1	0	n/a	n/a	0.0	0	0	0	PAL2	1	R1003P
894.8	4.0	735449	TEST_PROBE	n/a	wordpools/wordpool_EN.txt	SLEEVE	SHARK	1	1	SLEEVE	SWORD	0	7	[0, 0, 0]	n/a	0	1	0	n/a	n/a	0.0	0	0	0	PAL2	1	R1003P
894.8	1.501	735449	REC_START	n/a	n/a	n/a	n/a	1	-999	n/a	SWORD	0	7	[0, 0, 0]	n/a	0	1	0	n/a	n/a	0.0	0	0	0	PAL2	1	R1003P
896.301	3.516	736199	REC_EVENT	1.501	n/a	SLEEVE	SHARK	1	1	SLEEVE	SWORD	0	7	[0, 0, 0]	n/a	0	1	0	n/a	n/a	0.0	0	0	0	PAL2	1	R1003P
899.817	0.017	737957	REC_END	n/a	n/a	n/a	n/a	1	-999	n/a	n/a	-999	7	[0, 0, 0]	n/a	0	1	0	n/a	n/a	0.0	0	0	0	PAL2	1	R1003P
899.834	0.25	737966	TEST_ORIENT	n/a	n/a	SUIT	LAWN	6	2	SUIT	PASS	0	7	[0, 0, 0]	n/a	0	1	0	n/a	n/a	0.0	0	0	0	PAL2	1	R1003P
900.651	4.0	738374	TEST_PROBE	n/a	wordpools/wordpool_EN.txt	SUIT	LAWN	6	2	SUIT	PASS	0	7	[0, 0, 0]	n/a	0	1	0	n/a	n/a	0.0	0	0	0	PAL2	1	R1003P
900.652	1.221	738375	REC_START	n/a	n/a	n/a	n/a	6	-999	n/a	PASS	0	7	[0, 0, 0]	n/a	0	1	0	n/a	n/a	0.0	0	0	0	PAL2	1	R1003P
901.873	3.795	738985	REC_EVENT	1.221	n/a	SUIT	LAWN	6	2	SUIT	PASS	0	7	[0, 0, 0]	n/a	0	1	0	n/a	n/a	0.0	0	0	0	PAL2	1	R1003P
905.668	0.017	740883	REC_END	n/a	n/a	n/a	n/a	6	-999	n/a	n/a	-999	7	[0, 0, 0]	n/a	0	1	0	n/a	n/a	0.0	0	0	0	PAL2	1	R1003P
905.685	0.25	740891	TEST_ORIENT	n/a	n/a	SMOKE	SWORD	5	3	SWORD	PASS	0	7	[0, 0, 0]	n/a	0	1	0	n/a	n/a	0.0	0	0	0	PAL2	1	R1003P
906.486	4.0	741292	TEST_PROBE	n/a	wordpools/wordpool_EN.txt	SMOKE	SWORD	5	3	SWORD	PASS	0	7	[0, 0, 0]	n/a	0	1	0	n/a	n/a	0.0	0	0	0	PAL2	1	R1003P
906.487	1.759	741292	REC_START	n/a	n/a	n/a	n/a	5	-999	n/a	PASS	0	7	[0, 0, 0]	n/a	0	1	0	n/a	n/a	0.0	0	0	0	PAL2	1	R1003P
908.246	3.25	742172	REC_EVENT	1.759	n/a	SMOKE	SWORD	5	3	SWORD	PASS	0	7	[0, 0, 0]	n/a	0	1	0	n/a	n/a	0.0	0	0	0	PAL2	1	R1003P
911.496	0.008	743796	REC_END	n/a	n/a	n/a	n/a	5	-999	n/a	n/a	-999	7	[0, 0, 0]	n/a	0	1	0	n/a	n/a	0.0	0	0	0	PAL2	1	R1003P
911.504	0.25	743800	TEST_ORIENT	n/a	n/a	TOE	EAR	4	4	TOE	EAR	1	7	[0, 0, 0]	n/a	0	1	0	n/a	n/a	0.0	0	0	0	PAL2	1	R1003P
912.488	4.0	744292	TEST_PROBE	n/a	wordpools/wordpool_EN.txt	TOE	EAR	4	4	TOE	EAR	1	7	[0, 0, 0]	n/a	0	1	0	n/a	n/a	0.0	0	0	0	PAL2	1	R1003P
912.488	1.564	744292	REC_START	n/a	n/a	n/a	n/a	4	-999	n/a	EAR	1	7	[0, 0, 0]	n/a	0	1	0	n/a	n/a	0.0	0	0	0	PAL2	1	R1003P
914.052	3.453	745074	REC_EVENT	1.564	n/a	TOE	EAR	4	4	TOE	EAR	1	7	[0, 0, 0]	n/a	0	1	0	n/a	n/a	0.0	0	0	0	PAL2	1	R1003P
917.505	0.017	746801	REC_END	n/a	n/a	n/a	n/a	4	-999	n/a	n/a	-999	7	[0, 0, 0]	n/a	0	1	0	n/a	n/a	0.0	0	0	0	PAL2	1	R1003P
917.522	0.25	746809	TEST_ORIENT	n/a	n/a	VASE	CLIFF	3	5	CLIFF	PASS	0	7	[0, 0, 0]	n/a	0	1	0	n/a	n/a	0.0	0	0	0	PAL2	1	R1003P
918.455	4.0	747276	TEST_PROBE	n/a	wordpools/wordpool_EN.txt	VASE	CLIFF	3	5	CLIFF	PASS	0	7	[0, 0, 0]	n/a	0	1	0	n/a	n/a	0.0	0	0	0	PAL2	1	R1003P
918.456	3.045	747276	REC_START	n/a	n/a	n/a	n/a	3	-999	n/a	PASS	0	7	[0, 0, 0]	n/a	0	1	0	n/a	n/a	0.0	0	0	0	PAL2	1	R1003P
921.501	1.964	748799	REC_EVENT	3.045	n/a	VASE	CLIFF	3	5	CLIFF	PASS	0	7	[0, 0, 0]	n/a	0	1	0	n/a	n/a	0.0	0	0	0	PAL2	1	R1003P
923.465	0.008	749781	REC_END	n/a	n/a	n/a	n/a	3	-999	n/a	n/a	-999	7	[0, 0, 0]	n/a	0	1	0	n/a	n/a	0.0	0	0	0	PAL2	1	R1003P
923.473	0.25	749785	TEST_ORIENT	n/a	n/a	LEG	HOOK	2	6	HOOK	PASS	0	7	[0, 0, 0]	n/a	0	1	0	n/a	n/a	0.0	0	0	0	PAL2	1	R1003P
924.306	4.0	750201	TEST_PROBE	n/a	wordpools/wordpool_EN.txt	LEG	HOOK	2	6	HOOK	PASS	0	7	[0, 0, 0]	n/a	0	1	0	n/a	n/a	0.0	0	0	0	PAL2	1	R1003P
924.307	2.17	750202	REC_START	n/a	n/a	n/a	n/a	2	-999	n/a	PASS	0	7	[0, 0, 0]	n/a	0	1	0	n/a	n/a	0.0	0	0	0	PAL2	1	R1003P
926.477	2.839	751287	REC_EVENT	2.17	n/a	LEG	HOOK	2	6	HOOK	PASS	0	7	[0, 0, 0]	n/a	0	1	0	n/a	n/a	0.0	0	0	0	PAL2	1	R1003P
929.316	1.281	752706	REC_END	n/a	n/a	n/a	n/a	2	-999	n/a	n/a	-999	7	[0, 0, 0]	n/a	0	1	0	n/a	n/a	0.0	0	0	0	PAL2	1	R1003P
930.597	10.446	753346	ENCODING_START	n/a	n/a	n/a	n/a	0	-999	n/a	n/a	-999	8	[0, 0, 0]	n/a	0	0	0	n/a	n/a	0.0	0	0	0	PAL2	1	R1003P
941.043	0.25	758569	STUDY_ORIENT	n/a	n/a	HORSE	COW	1	3	COW	PASS	0	8	[0, 0, 0]	n/a	0	0	0	n/a	n/a	0.0	0	0	0	PAL2	1	R1003P
941.859	4.0	758977	STUDY_PAIR	n/a	wordpools/wordpool_EN.txt	HORSE	COW	1	3	COW	PASS	0	8	[0, 0, 0]	n/a	0	0	0	n/a	n/a	0.0	0	0	0	PAL2	1	R1003P
946.893	0.25	761494	STUDY_ORIENT	n/a	n/a	MAT	SOCK	2	6	MAT	PASS	0	8	[0, 0, 0]	n/a	0	0	0	n/a	n/a	0.0	0	0	0	PAL2	1	R1003P
947.827	4.0	761961	STUDY_PAIR	n/a	wordpools/wordpool_EN.txt	MAT	SOCK	2	6	MAT	PASS	0	8	[0, 0, 0]	n/a	0	0	0	n/a	n/a	0.0	0	0	0	PAL2	1	R1003P
952.861	0.25	764478	STUDY_ORIENT	n/a	n/a	PET	YARD	3	1	PET	PASS	0	8	[0, 0, 0]	n/a	0	0	0	n/a	n/a	0.0	0	0	0	PAL2	1	R1003P
953.744	4.0	764919	STUDY_PAIR	n/a	wordpools/wordpool_EN.txt	PET	YARD	3	1	PET	PASS	0	8	[0, 0, 0]	n/a	0	0	0	n/a	n/a	0.0	0	0	0	PAL2	1	R1003P
958.762	0.25	767428	STUDY_ORIENT	n/a	n/a	PIPE	TRAY	4	4	PIPE	GOLD	0	8	[0, 0, 0]	n/a	0	0	0	n/a	n/a	0.0	0	0	0	PAL2	1	R1003P
959.646	4.0	767870	STUDY_PAIR	n/a	wordpools/wordpool_EN.txt	PIPE	TRAY	4	4	PIPE	GOLD	0	8	[0, 0, 0]	n/a	0	0	0	n/a	n/a	0.0	0	0	0	PAL2	1	R1003P
964.68	0.25	770387	STUDY_ORIENT	n/a	n/a	COIN	RAKE	5	5	COIN	PASS	0	8	[0, 0, 0]	n/a	0	0	0	n/a	n/a	0.0	0	0	0	PAL2	1	R1003P
965.564	4.0	770829	STUDY_PAIR	n/a	wordpools/wordpool_EN.txt	COIN	RAKE	5	5	COIN	PASS	0	8	[0, 0, 0]	n/a	0	0	0	n/a	n/a	0.0	0	0	0	PAL2	1	R1003P
970.582	0.25	773338	STUDY_ORIENT	n/a	n/a	PRINCE	ELF	6	2	PRINCE	PASS	0	8	[0, 0, 0]	n/a	0	0	0	n/a	n/a	0.0	0	0	0	PAL2	1	R1003P
971.366	4.0	773730	STUDY_PAIR	n/a	wordpools/wordpool_EN.txt	PRINCE	ELF	6	2	PRINCE	PASS	0	8	[0, 0, 0]	n/a	0	0	0	n/a	n/a	0.0	0	0	0	PAL2	1	R1003P
975.384	0.999	775739	START	n/a	n/a	n/a	n/a	-999	-999	n/a	n/a	-999	8	[-999, -999, -999]	n/a	0	0	0	n/a	n/a	0.0	0	0	0	PAL2	1	R1003P
976.383	0.017	776238	MATH_START	n/a	n/a	n/a	n/a	-999	-999	n/a	n/a	-999	8	[0, 0, 0]	n/a	0	0	0	n/a	n/a	0.0	0	0	0	PAL2	1	R1003P
976.4	2.984	776247	PROB	2.95	n/a	n/a	n/a	-999	-999	n/a	n/a	-999	8	[2, 2, 9]	13	0	0	0	n/a	n/a	0.0	0	0	0	PAL2	1	R1003P
979.384	3.934	777739	PROB	3.91	n/a	n/a	n/a	-999	-999	n/a	n/a	-999	8	[9, 3, 3]	15	0	0	0	n/a	n/a	0.0	0	0	0	PAL2	1	R1003P
983.318	4.55	779706	PROB	4.527	n/a	n/a	n/a	-999	-999	n/a	n/a	-999	8	[9, 8, 5]	22	0	0	0	n/a	n/a	0.0	0	0	0	PAL2	1	R1003P
987.868	4.168	781980	PROB	4.138	n/a	n/a	n/a	-999	-999	n/a	n/a	-999	8	[9, 5, 3]	17	0	0	0	n/a	n/a	0.0	0	0	0	PAL2	1	R1003P
992.036	2.251	784064	PROB	2.226	n/a	n/a	n/a	-999	-999	n/a	n/a	-999	8	[2, 1, 1]	4	0	0	0	n/a	n/a	0.0	0	0	0	PAL2	1	R1003P
994.287	6.727	785190	PROB	6.727	n/a	n/a	n/a	-999	-999	n/a	n/a	-999	8	[8, 7, 3]	18	0	0	0	n/a	n/a	0.0	0	0	0	PAL2	1	R1003P
1001.014	0.007	788553	STOP	n/a	n/a	n/a	n/a	-999	-999	n/a	n/a	-999	8	[-999, -999, -999]	n/a	0	0	0	n/a	n/a	0.0	0	0	0	PAL2	1	R1003P
1001.021	0.0	788557	MATH_END	n/a	n/a	n/a	n/a	-999	-999	n/a	n/a	-999	8	[0, 0, 0]	n/a	0	0	0	n/a	n/a	0.0	0	0	0	PAL2	1	R1003P
1001.021	0.017	788557	TEST_START	n/a	n/a	n/a	n/a	-999	-999	n/a	n/a	-999	8	[0, 0, 0]	n/a	0	0	0	n/a	n/a	0.0	0	0	0	PAL2	1	R1003P
1001.038	0.25	788565	TEST_ORIENT	n/a	n/a	PET	YARD	3	1	PET	PASS	0	8	[0, 0, 0]	n/a	0	0	0	n/a	n/a	0.0	0	0	0	PAL2	1	R1003P
1001.955	0.0	789024	REC_START	n/a	n/a	n/a	n/a	3	-999	n/a	PASS	0	8	[0, 0, 0]	n/a	0	0	0	n/a	n/a	0.0	0	0	0	PAL2	1	R1003P
1001.955	4.0	789024	TEST_PROBE	n/a	wordpools/wordpool_EN.txt	PET	YARD	3	1	PET	PASS	0	8	[0, 0, 0]	n/a	0	0	0	n/a	n/a	0.0	0	0	0	PAL2	1	R1003P
1004.232	2.74	790162	REC_EVENT	2.277	n/a	PET	YARD	3	1	PET	PASS	0	8	[0, 0, 0]	n/a	0	0	0	n/a	n/a	0.0	0	0	0	PAL2	1	R1003P
1006.972	0.017	791532	REC_END	n/a	n/a	n/a	n/a	3	-999	n/a	n/a	-999	8	[0, 0, 0]	n/a	0	0	0	n/a	n/a	0.0	0	0	0	PAL2	1	R1003P
1006.989	0.25	791540	TEST_ORIENT	n/a	n/a	PRINCE	ELF	6	2	PRINCE	PASS	0	8	[0, 0, 0]	n/a	0	0	0	n/a	n/a	0.0	0	0	0	PAL2	1	R1003P
1007.972	4.0	792032	TEST_PROBE	n/a	wordpools/wordpool_EN.txt	PRINCE	ELF	6	2	PRINCE	PASS	0	8	[0, 0, 0]	n/a	0	0	0	n/a	n/a	0.0	0	0	0	PAL2	1	R1003P
1007.973	2.58	792032	REC_START	n/a	n/a	n/a	n/a	6	-999	n/a	PASS	0	8	[0, 0, 0]	n/a	0	0	0	n/a	n/a	0.0	0	0	0	PAL2	1	R1003P
1010.553	2.428	793322	REC_EVENT	2.58	n/a	PRINCE	ELF	6	2	PRINCE	PASS	0	8	[0, 0, 0]	n/a	0	0	0	n/a	n/a	0.0	0	0	0	PAL2	1	R1003P
1012.981	0.009	794536	REC_END	n/a	n/a	n/a	n/a	6	-999	n/a	n/a	-999	8	[0, 0, 0]	n/a	0	0	0	n/a	n/a	0.0	0	0	0	PAL2	1	R1003P
1012.99	0.25	794541	TEST_ORIENT	n/a	n/a	HORSE	COW	1	3	COW	PASS	0	8	[0, 0, 0]	n/a	0	0	0	n/a	n/a	0.0	0	0	0	PAL2	1	R1003P
1013.806	0.0	794949	REC_START	n/a	n/a	n/a	n/a	1	-999	n/a	PASS	0	8	[0, 0, 0]	n/a	0	0	0	n/a	n/a	0.0	0	0	0	PAL2	1	R1003P
1013.806	4.0	794949	TEST_PROBE	n/a	wordpools/wordpool_EN.txt	HORSE	COW	1	3	COW	PASS	0	8	[0, 0, 0]	n/a	0	0	0	n/a	n/a	0.0	0	0	0	PAL2	1	R1003P
1016.214	2.61	796153	REC_EVENT	2.408	n/a	HORSE	COW	1	3	COW	PASS	0	8	[0, 0, 0]	n/a	0	0	0	n/a	n/a	0.0	0	0	0	PAL2	1	R1003P
1018.824	0.016	797458	REC_END	n/a	n/a	n/a	n/a	1	-999	n/a	n/a	-999	8	[0, 0, 0]	n/a	0	0	0	n/a	n/a	0.0	0	0	0	PAL2	1	R1003P
1018.84	0.25	797466	TEST_ORIENT	n/a	n/a	PIPE	TRAY	4	4	PIPE	GOLD	0	8	[0, 0, 0]	n/a	0	0	0	n/a	n/a	0.0	0	0	0	PAL2	1	R1003P
1019.757	4.0	797924	TEST_PROBE	n/a	wordpools/wordpool_EN.txt	PIPE	TRAY	4	4	PIPE	GOLD	0	8	[0, 0, 0]	n/a	0	0	0	n/a	n/a	0.0	0	0	0	PAL2	1	R1003P
1019.758	1.871	797925	REC_START	n/a	n/a	n/a	n/a	4	-999	n/a	GOLD	0	8	[0, 0, 0]	n/a	0	0	0	n/a	n/a	0.0	0	0	0	PAL2	1	R1003P
1021.629	3.138	798860	REC_EVENT	1.871	n/a	PIPE	TRAY	4	4	PIPE	GOLD	0	8	[0, 0, 0]	n/a	0	0	0	n/a	n/a	0.0	0	0	0	PAL2	1	R1003P
1024.767	0.008	800429	REC_END	n/a	n/a	n/a	n/a	4	-999	n/a	n/a	-999	8	[0, 0, 0]	n/a	0	0	0	n/a	n/a	0.0	0	0	0	PAL2	1	R1003P
1024.775	0.25	800433	TEST_ORIENT	n/a	n/a	COIN	RAKE	5	5	COIN	PASS	0	8	[0, 0, 0]	n/a	0	0	0	n/a	n/a	0.0	0	0	0	PAL2	1	R1003P
1025.576	4.0	800833	TEST_PROBE	n/a	wordpools/wordpool_EN.txt	COIN	RAKE	5	5	COIN	PASS	0	8	[0, 0, 0]	n/a	0	0	0	n/a	n/a	0.0	0	0	0	PAL2	1	R1003P
1025.576	1.814	800833	REC_START	n/a	n/a	n/a	n/a	5	-999	n/a	PASS	0	8	[0, 0, 0]	n/a	0	0	0	n/a	n/a	0.0	0	0	0	PAL2	1	R1003P
1027.39	3.203	801740	REC_EVENT	1.814	n/a	COIN	RAKE	5	5	COIN	PASS	0	8	[0, 0, 0]	n/a	0	0	0	n/a	n/a	0.0	0	0	0	PAL2	1	R1003P
1030.593	0.016	803342	REC_END	n/a	n/a	n/a	n/a	5	-999	n/a	n/a	-999	8	[0, 0, 0]	n/a	0	0	0	n/a	n/a	0.0	0	0	0	PAL2	1	R1003P
1030.609	0.25	803350	TEST_ORIENT	n/a	n/a	MAT	SOCK	2	6	MAT	PASS	0	8	[0, 0, 0]	n/a	0	0	0	n/a	n/a	0.0	0	0	0	PAL2	1	R1003P
1031.51	4.0	803800	TEST_PROBE	n/a	wordpools/wordpool_EN.txt	MAT	SOCK	2	6	MAT	PASS	0	8	[0, 0, 0]	n/a	0	0	0	n/a	n/a	0.0	0	0	0	PAL2	1	R1003P
1031.511	1.496	803801	REC_START	n/a	n/a	n/a	n/a	2	-999	n/a	PASS	0	8	[0, 0, 0]	n/a	0	0	0	n/a	n/a	0.0	0	0	0	PAL2	1	R1003P
1033.007	3.513	804549	REC_EVENT	1.496	n/a	MAT	SOCK	2	6	MAT	PASS	0	8	[0, 0, 0]	n/a	0	0	0	n/a	n/a	0.0	0	0	0	PAL2	1	R1003P
1036.52	1.862	806305	REC_END	n/a	n/a	n/a	n/a	2	-999	n/a	n/a	-999	8	[0, 0, 0]	n/a	0	0	0	n/a	n/a	0.0	0	0	0	PAL2	1	R1003P
1038.382	10.448	807236	ENCODING_START	n/a	n/a	n/a	n/a	0	-999	n/a	n/a	-999	9	[0, 0, 0]	n/a	0	1	0	n/a	n/a	0.0	0	0	0	PAL2	1	R1003P
1048.83	0.25	812460	STUDY_ORIENT	n/a	n/a	BEAN	NAIL	1	3	NAIL	TOOTH	0	9	[0, 0, 0]	n/a	0	1	0	n/a	n/a	0.0	0	0	0	PAL2	1	R1003P
1049.73	4.0	812910	STUDY_PAIR	n/a	wordpools/wordpool_EN.txt	BEAN	NAIL	1	3	NAIL	TOOTH	0	9	[0, 0, 0]	n/a	0	1	0	n/a	n/a	0.0	0	0	0	PAL2	1	R1003P
1054.764	0.25	815427	STUDY_ORIENT	n/a	n/a	FOG	SOUP	2	4	FOG	PASS	0	9	[0, 0, 0]	n/a	0	1	0	n/a	n/a	0.0	0	0	0	PAL2	1	R1003P
1055.51	4.6	815800	STIM_ON	n/a	n/a	FOG	SOUP	2	4	FOG	PASS	0	9	[0, 0, 0]	n/a	1	1	4600	DA1	DA2	1500.0	50	230	300	PAL2	1	R1003P
1055.714	4.0	815902	STUDY_PAIR	n/a	wordpools/wordpool_EN.txt	FOG	SOUP	2	4	FOG	PASS	0	9	[0, 0, 0]	n/a	1	1	4600	DA1	DA2	1500.0	50	230	300	PAL2	1	R1003P
1060.732	0.25	818411	STUDY_ORIENT	n/a	n/a	SPOON	ROOM	3	1	SPOON	WOOD	0	9	[0, 0, 0]	n/a	0	1	0	n/a	n/a	0.0	0	0	0	PAL2	1	R1003P
1061.516	4.0	818803	STUDY_PAIR	n/a	wordpools/wordpool_EN.txt	SPOON	ROOM	3	1	SPOON	WOOD	0	9	[0, 0, 0]	n/a	0	1	0	n/a	n/a	0.0	0	0	0	PAL2	1	R1003P
1066.534	0.25	821311	STUDY_ORIENT	n/a	n/a	CHEEK	TOOTH	4	2	TOOTH	PASS	0	9	[0, 0, 0]	n/a	0	1	0	n/a	n/a	0.0	0	0	0	PAL2	1	R1003P
1067.238	4.6	821663	STIM_ON	n/a	n/a	CHEEK	TOOTH	4	2	TOOTH	PASS	0	9	[0, 0, 0]	n/a	1	1	4600	DA1	DA2	1500.0	50	230	300	PAL2	1	R1003P
1067.451	4.0	821770	STUDY_PAIR	n/a	wordpools/wordpool_EN.txt	CHEEK	TOOTH	4	2	TOOTH	PASS	0	9	[0, 0, 0]	n/a	1	1	4600	DA1	DA2	1500.0	50	230	300	PAL2	1	R1003P
1072.485	0.25	824287	STUDY_ORIENT	n/a	n/a	WHEEL	HOLE	5	5	WHEEL	PASS	0	9	[0, 0, 0]	n/a	0	1	0	n/a	n/a	0.0	0	0	0	PAL2	1	R1003P
1073.319	4.0	824704	STUDY_PAIR	n/a	wordpools/wordpool_EN.txt	WHEEL	HOLE	5	5	WHEEL	PASS	0	9	[0, 0, 0]	n/a	0	1	0	n/a	n/a	0.0	0	0	0	PAL2	1	R1003P
1078.353	0.25	827221	STUDY_ORIENT	n/a	n/a	ZOO	WEED	6	6	WEED	NAIL	0	9	[0, 0, 0]	n/a	0	1	0	n/a	n/a	0.0	0	0	0	PAL2	1	R1003P
1078.945	4.6	827517	STIM_ON	n/a	n/a	ZOO	WEED	6	6	WEED	NAIL	0	9	[0, 0, 0]	n/a	1	1	4600	DA1	DA2	1500.0	50	230	300	PAL2	1	R1003P
1079.153	4.0	827621	STUDY_PAIR	n/a	wordpools/wordpool_EN.txt	ZOO	WEED	6	6	WEED	NAIL	0	9	[0, 0, 0]	n/a	1	1	4600	DA1	DA2	1500.0	50	230	300	PAL2	1	R1003P
1083.171	1.0	829629	START	n/a	n/a	n/a	n/a	-999	-999	n/a	n/a	-999	9	[-999, -999, -999]	n/a	0	1	0	n/a	n/a	0.0	0	0	0	PAL2	1	R1003P
1084.171	0.016	830129	MATH_START	n/a	n/a	n/a	n/a	-999	-999	n/a	n/a	-999	9	[0, 0, 0]	n/a	0	1	0	n/a	n/a	0.0	0	0	0	PAL2	1	R1003P
1084.187	3.751	830137	PROB	3.731	n/a	n/a	n/a	-999	-999	n/a	n/a	-999	9	[6, 5, 6]	17	0	1	0	n/a	n/a	0.0	0	0	0	PAL2	1	R1003P
1087.938	3.617	832013	PROB	3.596	n/a	n/a	n/a	-999	-999	n/a	n/a	-999	9	[5, 9, 7]	21	0	1	0	n/a	n/a	0.0	0	0	0	PAL2	1	R1003P
1091.555	5.117	833821	PROB	5.098	n/a	n/a	n/a	-999	-999	n/a	n/a	-999	9	[4, 7, 8]	19	0	1	0	n/a	n/a	0.0	0	0	0	PAL2	1	R1003P
1096.672	1.984	836380	PROB	1.957	n/a	n/a	n/a	-999	-999	n/a	n/a	-999	9	[3, 6, 4]	13	0	1	0	n/a	n/a	0.0	0	0	0	PAL2	1	R1003P
1098.656	4.838	837372	PROB	4.838	n/a	n/a	n/a	-999	-999	n/a	n/a	-999	9	[8, 3, 6]	17	0	1	0	n/a	n/a	0.0	0	0	0	PAL2	1	R1003P
1103.494	0.014	839790	STOP	n/a	n/a	n/a	n/a	-999	-999	n/a	n/a	-999	9	[-999, -999, -999]	n/a	0	1	0	n/a	n/a	0.0	0	0	0	PAL2	1	R1003P
1103.508	0.0	839797	TEST_START	n/a	n/a	n/a	n/a	-999	-999	n/a	n/a	-999	9	[0, 0, 0]	n/a	0	1	0	n/a	n/a	0.0	0	0	0	PAL2	1	R1003P
1103.508	0.016	839797	MATH_END	n/a	n/a	n/a	n/a	-999	-999	n/a	n/a	-999	9	[0, 0, 0]	n/a	0	1	0	n/a	n/a	0.0	0	0	0	PAL2	1	R1003P
1103.524	0.25	839805	TEST_ORIENT	n/a	n/a	SPOON	ROOM	3	1	SPOON	WOOD	0	9	[0, 0, 0]	n/a	0	1	0	n/a	n/a	0.0	0	0	0	PAL2	1	R1003P
1104.541	4.0	840314	TEST_PROBE	n/a	wordpools/wordpool_EN.txt	SPOON	ROOM	3	1	SPOON	WOOD	0	9	[0, 0, 0]	n/a	0	1	0	n/a	n/a	0.0	0	0	0	PAL2	1	R1003P
1104.542	2.717	840314	REC_START	n/a	n/a	n/a	n/a	3	-999	n/a	WOOD	0	9	[0, 0, 0]	n/a	0	1	0	n/a	n/a	0.0	0	0	0	PAL2	1	R1003P
1107.259	2.291	841673	REC_EVENT	2.717	n/a	SPOON	ROOM	3	1	SPOON	WOOD	0	9	[0, 0, 0]	n/a	0	1	0	n/a	n/a	0.0	0	0	0	PAL2	1	R1003P
1109.55	0.009	842818	REC_END	n/a	n/a	n/a	n/a	3	-999	n/a	n/a	-999	9	[0, 0, 0]	n/a	0	1	0	n/a	n/a	0.0	0	0	0	PAL2	1	R1003P
1109.559	0.25	842823	TEST_ORIENT	n/a	n/a	CHEEK	TOOTH	4	2	TOOTH	PASS	0	9	[0, 0, 0]	n/a	0	1	0	n/a	n/a	0.0	0	0	0	PAL2	1	R1003P
1110.592	4.0	843339	TEST_PROBE	n/a	wordpools/wordpool_EN.txt	CHEEK	TOOTH	4	2	TOOTH	PASS	0	9	[0, 0, 0]	n/a	0	1	0	n/a	n/a	0.0	0	0	0	PAL2	1	R1003P
1110.593	1.874	843340	REC_START	n/a	n/a	n/a	n/a	4	-999	n/a	PASS	0	9	[0, 0, 0]	n/a	0	1	0	n/a	n/a	0.0	0	0	0	PAL2	1	R1003P
1112.467	3.135	844277	REC_EVENT	1.874	n/a	CHEEK	TOOTH	4	2	TOOTH	PASS	0	9	[0, 0, 0]	n/a	0	1	0	n/a	n/a	0.0	0	0	0	PAL2	1	R1003P
1115.602	0.007	845844	REC_END	n/a	n/a	n/a	n/a	4	-999	n/a	n/a	-999	9	[0, 0, 0]	n/a	0	1	0	n/a	n/a	0.0	0	0	0	PAL2	1	R1003P
1115.609	0.25	845848	TEST_ORIENT	n/a	n/a	BEAN	NAIL	1	3	NAIL	TOOTH	0	9	[0, 0, 0]	n/a	0	1	0	n/a	n/a	0.0	0	0	0	PAL2	1	R1003P
1116.609	4.0	846348	TEST_PROBE	n/a	wordpools/wordpool_EN.txt	BEAN	NAIL	1	3	NAIL	TOOTH	0	9	[0, 0, 0]	n/a	0	1	0	n/a	n/a	0.0	0	0	0	PAL2	1	R1003P
1116.61	1.713	846348	REC_START	n/a	n/a	n/a	n/a	1	-999	n/a	TOOTH	0	9	[0, 0, 0]	n/a	0	1	0	n/a	n/a	0.0	0	0	0	PAL2	1	R1003P
1118.323	3.296	847205	REC_EVENT	1.713	n/a	BEAN	NAIL	1	3	NAIL	TOOTH	0	9	[0, 0, 0]	n/a	0	1	0	n/a	n/a	0.0	0	0	0	PAL2	1	R1003P
1121.619	0.008	848852	REC_END	n/a	n/a	n/a	n/a	1	-999	n/a	n/a	-999	9	[0, 0, 0]	n/a	0	1	0	n/a	n/a	0.0	0	0	0	PAL2	1	R1003P
1121.627	0.25	848856	TEST_ORIENT	n/a	n/a	FOG	SOUP	2	4	FOG	PASS	0	9	[0, 0, 0]	n/a	0	1	0	n/a	n/a	0.0	0	0	0	PAL2	1	R1003P
1122.545	4.0	849315	TEST_PROBE	n/a	wordpools/wordpool_EN.txt	FOG	SOUP	2	4	FOG	PASS	0	9	[0, 0, 0]	n/a	0	1	0	n/a	n/a	0.0	0	0	0	PAL2	1	R1003P
1122.545	1.212	849315	REC_START	n/a	n/a	n/a	n/a	2	-999	n/a	PASS	0	9	[0, 0, 0]	n/a	0	1	0	n/a	n/a	0.0	0	0	0	PAL2	1	R1003P
1123.757	3.805	849921	REC_EVENT	1.212	n/a	FOG	SOUP	2	4	FOG	PASS	0	9	[0, 0, 0]	n/a	0	1	0	n/a	n/a	0.0	0	0	0	PAL2	1	R1003P
1127.562	0.017	851824	REC_END	n/a	n/a	n/a	n/a	2	-999	n/a	n/a	-999	9	[0, 0, 0]	n/a	0	1	0	n/a	n/a	0.0	0	0	0	PAL2	1	R1003P
1127.579	0.25	851832	TEST_ORIENT	n/a	n/a	WHEEL	HOLE	5	5	WHEEL	PASS	0	9	[0, 0, 0]	n/a	0	1	0	n/a	n/a	0.0	0	0	0	PAL2	1	R1003P
1128.529	4.0	852307	TEST_PROBE	n/a	wordpools/wordpool_EN.txt	WHEEL	HOLE	5	5	WHEEL	PASS	0	9	[0, 0, 0]	n/a	0	1	0	n/a	n/a	0.0	0	0	0	PAL2	1	R1003P
1128.53	1.443	852308	REC_START	n/a	n/a	n/a	n/a	5	-999	n/a	PASS	0	9	[0, 0, 0]	n/a	0	1	0	n/a	n/a	0.0	0	0	0	PAL2	1	R1003P
1129.973	3.565	853029	REC_EVENT	1.443	n/a	WHEEL	HOLE	5	5	WHEEL	PASS	0	9	[0, 0, 0]	n/a	0	1	0	n/a	n/a	0.0	0	0	0	PAL2	1	R1003P
1133.538	0.009	854812	REC_END	n/a	n/a	n/a	n/a	5	-999	n/a	n/a	-999	9	[0, 0, 0]	n/a	0	1	0	n/a	n/a	0.0	0	0	0	PAL2	1	R1003P
1133.547	0.25	854816	TEST_ORIENT	n/a	n/a	ZOO	WEED	6	6	WEED	NAIL	0	9	[0, 0, 0]	n/a	0	1	0	n/a	n/a	0.0	0	0	0	PAL2	1	R1003P
1134.33	4.0	855208	TEST_PROBE	n/a	wordpools/wordpool_EN.txt	ZOO	WEED	6	6	WEED	NAIL	0	9	[0, 0, 0]	n/a	0	1	0	n/a	n/a	0.0	0	0	0	PAL2	1	R1003P
1134.331	1.874	855208	REC_START	n/a	n/a	n/a	n/a	6	-999	n/a	NAIL	0	9	[0, 0, 0]	n/a	0	1	0	n/a	n/a	0.0	0	0	0	PAL2	1	R1003P
1136.205	3.143	856145	REC_EVENT	1.874	n/a	ZOO	WEED	6	6	WEED	NAIL	0	9	[0, 0, 0]	n/a	0	1	0	n/a	n/a	0.0	0	0	0	PAL2	1	R1003P
1139.348	776.229	857717	REC_END	n/a	n/a	n/a	n/a	6	-999	n/a	n/a	-999	9	[0, 0, 0]	n/a	0	1	0	n/a	n/a	0.0	0	0	0	PAL2	1	R1003P
1915.577	17.061	1245811	SESS_START	n/a	n/a	n/a	n/a	6	-999	n/a	n/a	-999	9	[0, 0, 0]	n/a	0	1	0	n/a	n/a	0.0	0	0	0	PAL2	1	R1003P
1932.638	10.446	1254341	ENCODING_START	n/a	n/a	n/a	n/a	0	-999	n/a	n/a	-999	10	[0, 0, 0]	n/a	0	1	0	n/a	n/a	0.0	0	0	0	PAL2	1	R1003P
1943.084	0.25	1259564	STUDY_ORIENT	n/a	n/a	JEEP	BLOOM	1	5	JEEP	PASS	0	10	[0, 0, 0]	n/a	0	1	0	n/a	n/a	0.0	0	0	0	PAL2	1	R1003P
1943.917	4.0	1259980	STUDY_PAIR	n/a	wordpools/wordpool_EN.txt	JEEP	BLOOM	1	5	JEEP	PASS	0	10	[0, 0, 0]	n/a	0	1	0	n/a	n/a	0.0	0	0	0	PAL2	1	R1003P
1948.935	0.25	1262489	STUDY_ORIENT	n/a	n/a	WALL	PEAR	2	2	WALL	PASS	0	10	[0, 0, 0]	n/a	0	1	0	n/a	n/a	0.0	0	0	0	PAL2	1	R1003P
1949.734	4.0	1262888	STUDY_PAIR	n/a	wordpools/wordpool_EN.txt	WALL	PEAR	2	2	WALL	PASS	0	10	[0, 0, 0]	n/a	0	1	0	n/a	n/a	0.0	0	0	0	PAL2	1	R1003P
1954.768	0.25	1265405	STUDY_ORIENT	n/a	n/a	BARN	PASTE	3	1	BARN	WALL	0	10	[0, 0, 0]	n/a	0	1	0	n/a	n/a	0.0	0	0	0	PAL2	1	R1003P
1955.552	4.0	1265797	STUDY_PAIR	n/a	wordpools/wordpool_EN.txt	BARN	PASTE	3	1	BARN	WALL	0	10	[0, 0, 0]	n/a	0	1	0	n/a	n/a	0.0	0	0	0	PAL2	1	R1003P
1960.586	0.25	1268314	STUDY_ORIENT	n/a	n/a	MILK	WEB	4	4	WEB	PASS	0	10	[0, 0, 0]	n/a	0	1	0	n/a	n/a	0.0	0	0	0	PAL2	1	R1003P
1961.453	4.0	1268748	STUDY_PAIR	n/a	wordpools/wordpool_EN.txt	MILK	WEB	4	4	WEB	PASS	0	10	[0, 0, 0]	n/a	0	1	0	n/a	n/a	0.0	0	0	0	PAL2	1	R1003P
1966.487	0.25	1271264	STUDY_ORIENT	n/a	n/a	CAVE	CAT	5	3	CAT	PASS	0	10	[0, 0, 0]	n/a	0	1	0	n/a	n/a	0.0	0	0	0	PAL2	1	R1003P
1967.304	4.0	1271673	STUDY_PAIR	n/a	wordpools/wordpool_EN.txt	CAVE	CAT	5	3	CAT	PASS	0	10	[0, 0, 0]	n/a	0	1	0	n/a	n/a	0.0	0	0	0	PAL2	1	R1003P
1972.338	0.25	1274190	STUDY_ORIENT	n/a	n/a	CAGE	BEAR	6	6	CAGE	WHEEL	0	10	[0, 0, 0]	n/a	0	1	0	n/a	n/a	0.0	0	0	0	PAL2	1	R1003P
1973.238	4.0	1274640	STUDY_PAIR	n/a	wordpools/wordpool_EN.txt	CAGE	BEAR	6	6	CAGE	WHEEL	0	10	[0, 0, 0]	n/a	0	1	0	n/a	n/a	0.0	0	0	0	PAL2	1	R1003P
1977.239	1.0	1276640	START	n/a	n/a	n/a	n/a	-999	-999	n/a	n/a	-999	10	[-999, -999, -999]	n/a	0	1	0	n/a	n/a	0.0	0	0	0	PAL2	1	R1003P
1978.239	0.017	1277140	MATH_START	n/a	n/a	n/a	n/a	-999	-999	n/a	n/a	-999	10	[0, 0, 0]	n/a	0	1	0	n/a	n/a	0.0	0	0	0	PAL2	1	R1003P
1978.256	5.018	1277149	PROB	4.998	n/a	n/a	n/a	-999	-999	n/a	n/a	-999	10	[6, 8, 9]	23	0	1	0	n/a	n/a	0.0	0	0	0	PAL2	1	R1003P
1983.274	2.217	1279657	PROB	2.188	n/a	n/a	n/a	-999	-999	n/a	n/a	-999	10	[7, 2, 5]	14	0	1	0	n/a	n/a	0.0	0	0	0	PAL2	1	R1003P
1985.491	2.551	1280766	PROB	2.524	n/a	n/a	n/a	-999	-999	n/a	n/a	-999	10	[5, 4, 3]	12	0	1	0	n/a	n/a	0.0	0	0	0	PAL2	1	R1003P
1988.042	1.901	1282041	PROB	1.869	n/a	n/a	n/a	-999	-999	n/a	n/a	-999	10	[1, 2, 1]	4	0	1	0	n/a	n/a	0.0	0	0	0	PAL2	1	R1003P
1989.943	2.432	1282992	PROB	2.399	n/a	n/a	n/a	-999	-999	n/a	n/a	-999	10	[1, 5, 2]	8	0	1	0	n/a	n/a	0.0	0	0	0	PAL2	1	R1003P
1992.375	3.535	1284208	PROB	3.503	n/a	n/a	n/a	-999	-999	n/a	n/a	-999	10	[6, 2, 8]	16	0	1	0	n/a	n/a	0.0	0	0	0	PAL2	1	R1003P
1995.91	2.568	1285975	PROB	2.568	n/a	n/a	n/a	-999	-999	n/a	n/a	-999	10	[7, 5, 3]	15	0	1	0	n/a	n/a	0.0	0	0	0	PAL2	1	R1003P
1998.478	0.015	1287259	STOP	n/a	n/a	n/a	n/a	-999	-999	n/a	n/a	-999	10	[-999, -999, -999]	n/a	0	1	0	n/a	n/a	0.0	0	0	0	PAL2	1	R1003P
1998.493	0.0	1287267	MATH_END	n/a	n/a	n/a	n/a	-999	-999	n/a	n/a	-999	10	[0, 0, 0]	n/a	0	1	0	n/a	n/a	0.0	0	0	0	PAL2	1	R1003P
1998.493	0.017	1287267	TEST_START	n/a	n/a	n/a	n/a	-999	-999	n/a	n/a	-999	10	[0, 0, 0]	n/a	0	1	0	n/a	n/a	0.0	0	0	0	PAL2	1	R1003P
1998.51	0.25	1287275	TEST_ORIENT	n/a	n/a	BARN	PASTE	3	1	BARN	WALL	0	10	[0, 0, 0]	n/a	0	1	0	n/a	n/a	0.0	0	0	0	PAL2	1	R1003P
1999.393	4.0	1287717	TEST_PROBE	n/a	wordpools/wordpool_EN.txt	BARN	PASTE	3	1	BARN	WALL	0	10	[0, 0, 0]	n/a	0	1	0	n/a	n/a	0.0	0	0	0	PAL2	1	R1003P
1999.394	1.811	1287717	REC_START	n/a	n/a	n/a	n/a	3	-999	n/a	WALL	0	10	[0, 0, 0]	n/a	0	1	0	n/a	n/a	0.0	0	0	0	PAL2	1	R1003P
2001.205	3.197	1288623	REC_EVENT	1.811	n/a	BARN	PASTE	3	1	BARN	WALL	0	10	[0, 0, 0]	n/a	0	1	0	n/a	n/a	0.0	0	0	0	PAL2	1	R1003P
2004.402	0.009	1290221	REC_END	n/a	n/a	n/a	n/a	3	-999	n/a	n/a	-999	10	[0, 0, 0]	n/a	0	1	0	n/a	n/a	0.0	0	0	0	PAL2	1	R1003P
2004.411	0.25	1290225	TEST_ORIENT	n/a	n/a	WALL	PEAR	2	2	WALL	PASS	0	10	[0, 0, 0]	n/a	0	1	0	n/a	n/a	0.0	0	0	0	PAL2	1	R1003P
2005.009	4.6	1290524	STIM_ON	n/a	n/a	WALL	PEAR	2	2	WALL	PASS	0	10	[0, 0, 0]	n/a	1	1	4600	DA1	DA2	1500.0	50	230	300	PAL2	1	R1003P
2005.212	4.0	1290626	TEST_PROBE	n/a	wordpools/wordpool_EN.txt	WALL	PEAR	2	2	WALL	PASS	0	10	[0, 0, 0]	n/a	1	1	4600	DA1	DA2	1500.0	50	230	300	PAL2	1	R1003P
2005.213	1.795	1290626	REC_START	n/a	n/a	n/a	n/a	2	-999	n/a	PASS	0	10	[0, 0, 0]	n/a	1	1	4600	DA1	DA2	1500.0	50	230	300	PAL2	1	R1003P
2007.008	3.212	1291524	REC_EVENT	1.795	n/a	WALL	PEAR	2	2	WALL	PASS	0	10	[0, 0, 0]	n/a	1	1	4600	DA1	DA2	1500.0	50	230	300	PAL2	1	R1003P
2010.22	0.01	1293130	REC_END	n/a	n/a	n/a	n/a	2	-999	n/a	n/a	-999	10	[0, 0, 0]	n/a	0	1	0	n/a	n/a	0.0	0	0	0	PAL2	1	R1003P
2010.23	0.25	1293135	TEST_ORIENT	n/a	n/a	CAVE	CAT	5	3	CAT	PASS	0	10	[0, 0, 0]	n/a	0	1	0	n/a	n/a	0.0	0	0	0	PAL2	1	R1003P
2011.08	4.0	1293560	TEST_PROBE	n/a	wordpools/wordpool_EN.txt	CAVE	CAT	5	3	CAT	PASS	0	10	[0, 0, 0]	n/a	0	1	0	n/a	n/a	0.0	0	0	0	PAL2	1	R1003P
2011.08	1.472	1293560	REC_START	n/a	n/a	n/a	n/a	5	-999	n/a	PASS	0	10	[0, 0, 0]	n/a	0	1	0	n/a	n/a	0.0	0	0	0	PAL2	1	R1003P
2012.552	3.545	1294296	REC_EVENT	1.472	n/a	CAVE	CAT	5	3	CAT	PASS	0	10	[0, 0, 0]	n/a	0	1	0	n/a	n/a	0.0	0	0	0	PAL2	1	R1003P
2016.097	0.017	1296068	REC_END	n/a	n/a	n/a	n/a	5	-999	n/a	n/a	-999	10	[0, 0, 0]	n/a	0	1	0	n/a	n/a	0.0	0	0	0	PAL2	1	R1003P
2016.114	0.25	1296077	TEST_ORIENT	n/a	n/a	MILK	WEB	4	4	WEB	PASS	0	10	[0, 0, 0]	n/a	0	1	0	n/a	n/a	0.0	0	0	0	PAL2	1	R1003P
2016.873	4.6	1296456	STIM_ON	n/a	n/a	MILK	WEB	4	4	WEB	PASS	0	10	[0, 0, 0]	n/a	1	1	4600	DA1	DA2	1500.0	50	230	300	PAL2	1	R1003P
2017.081	0.0	1296560	REC_START	n/a	n/a	n/a	n/a	4	-999	n/a	PASS	0	10	[0, 0, 0]	n/a	1	1	4600	DA1	DA2	1500.0	50	230	300	PAL2	1	R1003P
2017.081	4.0	1296560	TEST_PROBE	n/a	wordpools/wordpool_EN.txt	MILK	WEB	4	4	WEB	PASS	0	10	[0, 0, 0]	n/a	1	1	4600	DA1	DA2	1500.0	50	230	300	PAL2	1	R1003P
2018.971	3.127	1297505	REC_EVENT	1.89	n/a	MILK	WEB	4	4	WEB	PASS	0	10	[0, 0, 0]	n/a	1	1	4600	DA1	DA2	1500.0	50	230	300	PAL2	1	R1003P
2022.098	0.017	1299068	REC_END	n/a	n/a	n/a	n/a	4	-999	n/a	n/a	-999	10	[0, 0, 0]	n/a	0	1	0	n/a	n/a	0.0	0	0	0	PAL2	1	R1003P
2022.115	0.25	1299077	TEST_ORIENT	n/a	n/a	JEEP	BLOOM	1	5	JEEP	PASS	0	10	[0, 0, 0]	n/a	0	1	0	n/a	n/a	0.0	0	0	0	PAL2	1	R1003P
2023.016	4.0	1299527	TEST_PROBE	n/a	wordpools/wordpool_EN.txt	JEEP	BLOOM	1	5	JEEP	PASS	0	10	[0, 0, 0]	n/a	0	1	0	n/a	n/a	0.0	0	0	0	PAL2	1	R1003P
2023.016	2.097	1299527	REC_START	n/a	n/a	n/a	n/a	1	-999	n/a	PASS	0	10	[0, 0, 0]	n/a	0	1	0	n/a	n/a	0.0	0	0	0	PAL2	1	R1003P
2025.113	2.92	1300576	REC_EVENT	2.097	n/a	JEEP	BLOOM	1	5	JEEP	PASS	0	10	[0, 0, 0]	n/a	0	1	0	n/a	n/a	0.0	0	0	0	PAL2	1	R1003P
2028.033	0.017	1302036	REC_END	n/a	n/a	n/a	n/a	1	-999	n/a	n/a	-999	10	[0, 0, 0]	n/a	0	1	0	n/a	n/a	0.0	0	0	0	PAL2	1	R1003P
2028.05	0.25	1302044	TEST_ORIENT	n/a	n/a	CAGE	BEAR	6	6	CAGE	WHEEL	0	10	[0, 0, 0]	n/a	0	1	0	n/a	n/a	0.0	0	0	0	PAL2	1	R1003P
2028.695	4.6	1302367	STIM_ON	n/a	n/a	CAGE	BEAR	6	6	CAGE	WHEEL	0	10	[0, 0, 0]	n/a	1	1	4600	DA1	DA2	1500.0	50	230	300	PAL2	1	R1003P
2028.9	4.0	1302469	TEST_PROBE	n/a	wordpools/wordpool_EN.txt	CAGE	BEAR	6	6	CAGE	WHEEL	0	10	[0, 0, 0]	n/a	1	1	4600	DA1	DA2	1500.0	50	230	300	PAL2	1	R1003P
2028.901	1.901	1302470	REC_START	n/a	n/a	n/a	n/a	6	-999	n/a	WHEEL	0	10	[0, 0, 0]	n/a	1	1	4600	DA1	DA2	1500.0	50	230	300	PAL2	1	R1003P
2030.802	3.133	1303420	REC_EVENT	1.901	n/a	CAGE	BEAR	6	6	CAGE	WHEEL	0	10	[0, 0, 0]	n/a	1	1	4600	DA1	DA2	1500.0	50	230	300	PAL2	1	R1003P
2033.935	0.879	1304987	REC_END	n/a	n/a	n/a	n/a	6	-999	n/a	n/a	-999	10	[0, 0, 0]	n/a	0	1	0	n/a	n/a	0.0	0	0	0	PAL2	1	R1003P
2034.814	10.438	1305426	ENCODING_START	n/a	n/a	n/a	n/a	0	-999	n/a	n/a	-999	11	[0, 0, 0]	n/a	0	1	0	n/a	n/a	0.0	0	0	0	PAL2	1	R1003P
2045.252	0.25	1310645	STUDY_ORIENT	n/a	n/a	MOTH	GRASS	1	1	MOTH	GRASS	1	11	[0, 0, 0]	n/a	0	1	0	n/a	n/a	0.0	0	0	0	PAL2	1	R1003P
2045.995	4.6	1311016	STIM_ON	n/a	n/a	MOTH	GRASS	1	1	MOTH	GRASS	1	11	[0, 0, 0]	n/a	1	1	4600	DA1	DA2	1500.0	50	230	300	PAL2	1	R1003P
2046.203	4.0	1311120	STUDY_PAIR	n/a	wordpools/wordpool_EN.txt	MOTH	GRASS	1	1	MOTH	GRASS	1	11	[0, 0, 0]	n/a	1	1	4600	DA1	DA2	1500.0	50	230	300	PAL2	1	R1003P
2051.221	0.25	1313629	STUDY_ORIENT	n/a	n/a	TAIL	BALL	2	4	TAIL	ROOF	0	11	[0, 0, 0]	n/a	0	1	0	n/a	n/a	0.0	0	0	0	PAL2	1	R1003P
2052.104	4.0	1314071	STUDY_PAIR	n/a	wordpools/wordpool_EN.txt	TAIL	BALL	2	4	TAIL	ROOF	0	11	[0, 0, 0]	n/a	0	1	0	n/a	n/a	0.0	0	0	0	PAL2	1	R1003P
2057.122	0.25	1316580	STUDY_ORIENT	n/a	n/a	GRAPE	CUBE	3	5	CUBE	PASS	0	11	[0, 0, 0]	n/a	0	1	0	n/a	n/a	0.0	0	0	0	PAL2	1	R1003P
2057.75	4.6	1316894	STIM_ON	n/a	n/a	GRAPE	CUBE	3	5	CUBE	PASS	0	11	[0, 0, 0]	n/a	1	1	4600	DA1	DA2	1500.0	50	230	300	PAL2	1	R1003P
2057.956	4.0	1316997	STUDY_PAIR	n/a	wordpools/wordpool_EN.txt	GRAPE	CUBE	3	5	CUBE	PASS	0	11	[0, 0, 0]	n/a	1	1	4600	DA1	DA2	1500.0	50	230	300	PAL2	1	R1003P
2062.99	0.25	1319513	STUDY_ORIENT	n/a	n/a	BRUSH	ROCK	4	6	ROCK	PASS	0	11	[0, 0, 0]	n/a	0	1	0	n/a	n/a	0.0	0	0	0	PAL2	1	R1003P
2063.806	4.0	1319921	STUDY_PAIR	n/a	wordpools/wordpool_EN.txt	BRUSH	ROCK	4	6	ROCK	PASS	0	11	[0, 0, 0]	n/a	0	1	0	n/a	n/a	0.0	0	0	0	PAL2	1	R1003P
2068.84	0.25	1322438	STUDY_ORIENT	n/a	n/a	NET	BOOK	5	3	NET	PASS	0	11	[0, 0, 0]	n/a	0	1	0	n/a	n/a	0.0	0	0	0	PAL2	1	R1003P
2069.426	4.6	1322731	STIM_ON	n/a	n/a	NET	BOOK	5	3	NET	PASS	0	11	[0, 0, 0]	n/a	1	1	4600	DA1	DA2	1500.0	50	230	300	PAL2	1	R1003P
2069.64	4.0	1322838	STUDY_PAIR	n/a	wordpools/wordpool_EN.txt	NET	BOOK	5	3	NET	PASS	0	11	[0, 0, 0]	n/a	1	1	4600	DA1	DA2	1500.0	50	230	300	PAL2	1	R1003P
2074.658	0.25	1325347	STUDY_ORIENT	n/a	n/a	RICE	PEA	6	2	RICE	PEA	1	11	[0, 0, 0]	n/a	0	1	0	n/a	n/a	0.0	0	0	0	PAL2	1	R1003P
2075.641	4.0	1325839	STUDY_PAIR	n/a	wordpools/wordpool_EN.txt	RICE	PEA	6	2	RICE	PEA	1	11	[0, 0, 0]	n/a	0	1	0	n/a	n/a	0.0	0	0	0	PAL2	1	R1003P
2079.642	1.0	1327839	START	n/a	n/a	n/a	n/a	-999	-999	n/a	n/a	-999	11	[-999, -999, -999]	n/a	0	1	0	n/a	n/a	0.0	0	0	0	PAL2	1	R1003P
2080.642	0.017	1328339	MATH_START	n/a	n/a	n/a	n/a	-999	-999	n/a	n/a	-999	11	[0, 0, 0]	n/a	0	1	0	n/a	n/a	0.0	0	0	0	PAL2	1	R1003P
2080.659	4.402	1328347	PROB	4.38	n/a	n/a	n/a	-999	-999	n/a	n/a	-999	11	[8, 6, 5]	19	0	1	0	n/a	n/a	0.0	0	0	0	PAL2	1	R1003P
2085.061	3.05	1330548	PROB	3.018	n/a	n/a	n/a	-999	-999	n/a	n/a	-999	11	[3, 3, 4]	10	0	1	0	n/a	n/a	0.0	0	0	0	PAL2	1	R1003P
2088.111	2.366	1332073	PROB	2.343	n/a	n/a	n/a	-999	-999	n/a	n/a	-999	11	[9, 9, 1]	19	0	1	0	n/a	n/a	0.0	0	0	0	PAL2	1	R1003P
2090.477	3.201	1333256	PROB	3.169	n/a	n/a	n/a	-999	-999	n/a	n/a	-999	11	[9, 9, 9]	27	0	1	0	n/a	n/a	0.0	0	0	0	PAL2	1	R1003P
2093.678	3.335	1334857	PROB	3.313	n/a	n/a	n/a	-999	-999	n/a	n/a	-999	11	[5, 8, 8]	21	0	1	0	n/a	n/a	0.0	0	0	0	PAL2	1	R1003P
2097.013	4.106	1336524	PROB	4.106	n/a	n/a	n/a	-999	-999	n/a	n/a	-999	11	[4, 2, 7]	13	0	1	0	n/a	n/a	0.0	0	0	0	PAL2	1	R1003P
2101.119	0.012	1338577	STOP	n/a	n/a	n/a	n/a	-999	-999	n/a	n/a	-999	11	[-999, -999, -999]	n/a	0	1	0	n/a	n/a	0.0	0	0	0	PAL2	1	R1003P
2101.131	0.0	1338583	MATH_END	n/a	n/a	n/a	n/a	-999	-999	n/a	n/a	-999	11	[0, 0, 0]	n/a	0	1	0	n/a	n/a	0.0	0	0	0	PAL2	1	R1003P
2101.131	0.016	1338583	TEST_START	n/a	n/a	n/a	n/a	-999	-999	n/a	n/a	-999	11	[0, 0, 0]	n/a	0	1	0	n/a	n/a	0.0	0	0	0	PAL2	1	R1003P
2101.147	0.25	1338591	TEST_ORIENT	n/a	n/a	MOTH	GRASS	1	1	MOTH	GRASS	1	11	[0, 0, 0]	n/a	0	1	0	n/a	n/a	0.0	0	0	0	PAL2	1	R1003P
2102.147	4.0	1339091	TEST_PROBE	n/a	wordpools/wordpool_EN.txt	MOTH	GRASS	1	1	MOTH	GRASS	1	11	[0, 0, 0]	n/a	0	1	0	n/a	n/a	0.0	0	0	0	PAL2	1	R1003P
2102.148	1.424	1339091	REC_START	n/a	n/a	n/a	n/a	1	-999	n/a	GRASS	1	11	[0, 0, 0]	n/a	0	1	0	n/a	n/a	0.0	0	0	0	PAL2	1	R1003P
2103.572	3.584	1339803	REC_EVENT	1.424	n/a	MOTH	GRASS	1	1	MOTH	GRASS	1	11	[0, 0, 0]	n/a	0	1	0	n/a	n/a	0.0	0	0	0	PAL2	1	R1003P
2107.156	0.009	1341595	REC_END	n/a	n/a	n/a	n/a	1	-999	n/a	n/a	-999	11	[0, 0, 0]	n/a	0	1	0	n/a	n/a	0.0	0	0	0	PAL2	1	R1003P
2107.165	0.25	1341600	TEST_ORIENT	n/a	n/a	RICE	PEA	6	2	RICE	PEA	1	11	[0, 0, 0]	n/a	0	1	0	n/a	n/a	0.0	0	0	0	PAL2	1	R1003P
2107.965	4.0	1342000	TEST_PROBE	n/a	wordpools/wordpool_EN.txt	RICE	PEA	6	2	RICE	PEA	1	11	[0, 0, 0]	n/a	0	1	0	n/a	n/a	0.0	0	0	0	PAL2	1	R1003P
2107.966	1.019	1342000	REC_START	n/a	n/a	n/a	n/a	6	-999	n/a	PEA	1	11	[0, 0, 0]	n/a	0	1	0	n/a	n/a	0.0	0	0	0	PAL2	1	R1003P
2108.985	3.989	1342510	REC_EVENT	1.019	n/a	RICE	PEA	6	2	RICE	PEA	1	11	[0, 0, 0]	n/a	0	1	0	n/a	n/a	0.0	0	0	0	PAL2	1	R1003P
2112.974	0.009	1344504	REC_END	n/a	n/a	n/a	n/a	6	-999	n/a	n/a	-999	11	[0, 0, 0]	n/a	0	1	0	n/a	n/a	0.0	0	0	0	PAL2	1	R1003P
2112.983	0.25	1344509	TEST_ORIENT	n/a	n/a	NET	BOOK	5	3	NET	PASS	0	11	[0, 0, 0]	n/a	0	1	0	n/a	n/a	0.0	0	0	0	PAL2	1	R1003P
2113.933	4.0	1344984	TEST_PROBE	n/a	wordpools/wordpool_EN.txt	NET	BOOK	5	3	NET	PASS	0	11	[0, 0, 0]	n/a	0	1	0	n/a	n/a	0.0	0	0	0	PAL2	1	R1003P
2113.933	1.364	1344984	REC_START	n/a	n/a	n/a	n/a	5	-999	n/a	PASS	0	11	[0, 0, 0]	n/a	0	1	0	n/a	n/a	0.0	0	0	0	PAL2	1	R1003P
2115.297	3.655	1345666	REC_EVENT	1.364	n/a	NET	BOOK	5	3	NET	PASS	0	11	[0, 0, 0]	n/a	0	1	0	n/a	n/a	0.0	0	0	0	PAL2	1	R1003P
2118.952	0.015	1347493	REC_END	n/a	n/a	n/a	n/a	5	-999	n/a	n/a	-999	11	[0, 0, 0]	n/a	0	1	0	n/a	n/a	0.0	0	0	0	PAL2	1	R1003P
2118.967	0.25	1347500	TEST_ORIENT	n/a	n/a	TAIL	BALL	2	4	TAIL	ROOF	0	11	[0, 0, 0]	n/a	0	1	0	n/a	n/a	0.0	0	0	0	PAL2	1	R1003P
2119.918	4.0	1347976	TEST_PROBE	n/a	wordpools/wordpool_EN.txt	TAIL	BALL	2	4	TAIL	ROOF	0	11	[0, 0, 0]	n/a	0	1	0	n/a	n/a	0.0	0	0	0	PAL2	1	R1003P
2119.918	1.891	1347976	REC_START	n/a	n/a	n/a	n/a	2	-999	n/a	ROOF	0	11	[0, 0, 0]	n/a	0	1	0	n/a	n/a	0.0	0	0	0	PAL2	1	R1003P
2121.809	3.126	1348921	REC_EVENT	1.891	n/a	TAIL	BALL	2	4	TAIL	ROOF	0	11	[0, 0, 0]	n/a	0	1	0	n/a	n/a	0.0	0	0	0	PAL2	1	R1003P
2124.935	0.017	1350484	REC_END	n/a	n/a	n/a	n/a	2	-999	n/a	n/a	-999	11	[0, 0, 0]	n/a	0	1	0	n/a	n/a	0.0	0	0	0	PAL2	1	R1003P
2124.952	0.25	1350493	TEST_ORIENT	n/a	n/a	GRAPE	CUBE	3	5	CUBE	PASS	0	11	[0, 0, 0]	n/a	0	1	0	n/a	n/a	0.0	0	0	0	PAL2	1	R1003P
2125.818	4.0	1350926	TEST_PROBE	n/a	wordpools/wordpool_EN.txt	GRAPE	CUBE	3	5	CUBE	PASS	0	11	[0, 0, 0]	n/a	0	1	0	n/a	n/a	0.0	0	0	0	PAL2	1	R1003P
2125.818	1.345	1350926	REC_START	n/a	n/a	n/a	n/a	3	-999	n/a	PASS	0	11	[0, 0, 0]	n/a	0	1	0	n/a	n/a	0.0	0	0	0	PAL2	1	R1003P
2127.163	3.672	1351598	REC_EVENT	1.345	n/a	GRAPE	CUBE	3	5	CUBE	PASS	0	11	[0, 0, 0]	n/a	0	1	0	n/a	n/a	0.0	0	0	0	PAL2	1	R1003P
2130.835	0.017	1353434	REC_END	n/a	n/a	n/a	n/a	3	-999	n/a	n/a	-999	11	[0, 0, 0]	n/a	0	1	0	n/a	n/a	0.0	0	0	0	PAL2	1	R1003P
2130.852	0.25	1353443	TEST_ORIENT	n/a	n/a	BRUSH	ROCK	4	6	ROCK	PASS	0	11	[0, 0, 0]	n/a	0	1	0	n/a	n/a	0.0	0	0	0	PAL2	1	R1003P
2131.852	4.0	1353943	TEST_PROBE	n/a	wordpools/wordpool_EN.txt	BRUSH	ROCK	4	6	ROCK	PASS	0	11	[0, 0, 0]	n/a	0	1	0	n/a	n/a	0.0	0	0	0	PAL2	1	R1003P
2131.853	1.303	1353943	REC_START	n/a	n/a	n/a	n/a	4	-999	n/a	PASS	0	11	[0, 0, 0]	n/a	0	1	0	n/a	n/a	0.0	0	0	0	PAL2	1	R1003P
2133.156	3.705	1354595	REC_EVENT	1.303	n/a	BRUSH	ROCK	4	6	ROCK	PASS	0	11	[0, 0, 0]	n/a	0	1	0	n/a	n/a	0.0	0	0	0	PAL2	1	R1003P
2136.861	0.921	1356447	REC_END	n/a	n/a	n/a	n/a	4	-999	n/a	n/a	-999	11	[0, 0, 0]	n/a	0	1	0	n/a	n/a	0.0	0	0	0	PAL2	1	R1003P
2137.782	10.441	1356907	ENCODING_START	n/a	n/a	n/a	n/a	0	-999	n/a	n/a	-999	12	[0, 0, 0]	n/a	0	1	0	n/a	n/a	0.0	0	0	0	PAL2	1	R1003P
2148.223	0.25	1362128	STUDY_ORIENT	n/a	n/a	JAR	EEL	1	1	JAR	EEL	1	12	[0, 0, 0]	n/a	0	1	0	n/a	n/a	0.0	0	0	0	PAL2	1	R1003P
2149.223	4.0	1362628	STUDY_PAIR	n/a	wordpools/wordpool_EN.txt	JAR	EEL	1	1	JAR	EEL	1	12	[0, 0, 0]	n/a	0	1	0	n/a	n/a	0.0	0	0	0	PAL2	1	R1003P
2154.24	0.25	1365136	STUDY_ORIENT	n/a	n/a	WOOD	MOON	2	4	MOON	PASS	0	12	[0, 0, 0]	n/a	0	1	0	n/a	n/a	0.0	0	0	0	PAL2	1	R1003P
2155.141	4.0	1365586	STUDY_PAIR	n/a	wordpools/wordpool_EN.txt	WOOD	MOON	2	4	MOON	PASS	0	12	[0, 0, 0]	n/a	0	1	0	n/a	n/a	0.0	0	0	0	PAL2	1	R1003P
2160.175	0.25	1368103	STUDY_ORIENT	n/a	n/a	SPEAR	MOOSE	3	3	MOOSE	WOOD	0	12	[0, 0, 0]	n/a	0	1	0	n/a	n/a	0.0	0	0	0	PAL2	1	R1003P
2161.175	4.0	1368603	STUDY_PAIR	n/a	wordpools/wordpool_EN.txt	SPEAR	MOOSE	3	3	MOOSE	WOOD	0	12	[0, 0, 0]	n/a	0	1	0	n/a	n/a	0.0	0	0	0	PAL2	1	R1003P
2166.193	0.25	1371112	STUDY_ORIENT	n/a	n/a	SNAKE	DUCK	4	6	SNAKE	PASS	0	12	[0, 0, 0]	n/a	0	1	0	n/a	n/a	0.0	0	0	0	PAL2	1	R1003P
2167.01	4.0	1371521	STUDY_PAIR	n/a	wordpools/wordpool_EN.txt	SNAKE	DUCK	4	6	SNAKE	PASS	0	12	[0, 0, 0]	n/a	0	1	0	n/a	n/a	0.0	0	0	0	PAL2	1	R1003P
2172.044	0.25	1374038	STUDY_ORIENT	n/a	n/a	BLUSH	PANTS	5	5	BLUSH	PASS	0	12	[0, 0, 0]	n/a	0	1	0	n/a	n/a	0.0	0	0	0	PAL2	1	R1003P
2172.893	4.0	1374462	STUDY_PAIR	n/a	wordpools/wordpool_EN.txt	BLUSH	PANTS	5	5	BLUSH	PASS	0	12	[0, 0, 0]	n/a	0	1	0	n/a	n/a	0.0	0	0	0	PAL2	1	R1003P
2177.912	0.25	1376971	STUDY_ORIENT	n/a	n/a	WING	ROAD	6	2	WING	PASS	0	12	[0, 0, 0]	n/a	0	1	0	n/a	n/a	0.0	0	0	0	PAL2	1	R1003P
2178.761	4.0	1377396	STUDY_PAIR	n/a	wordpools/wordpool_EN.txt	WING	ROAD	6	2	WING	PASS	0	12	[0, 0, 0]	n/a	0	1	0	n/a	n/a	0.0	0	0	0	PAL2	1	R1003P
2182.762	1.0	1379396	START	n/a	n/a	n/a	n/a	-999	-999	n/a	n/a	-999	12	[-999, -999, -999]	n/a	0	1	0	n/a	n/a	0.0	0	0	0	PAL2	1	R1003P
2183.762	0.017	1379896	MATH_START	n/a	n/a	n/a	n/a	-999	-999	n/a	n/a	-999	12	[0, 0, 0]	n/a	0	1	0	n/a	n/a	0.0	0	0	0	PAL2	1	R1003P
2183.779	3.784	1379905	PROB	3.763	n/a	n/a	n/a	-999	-999	n/a	n/a	-999	12	[9, 8, 3]	20	0	1	0	n/a	n/a	0.0	0	0	0	PAL2	1	R1003P
2187.563	3.217	1381797	PROB	3.195	n/a	n/a	n/a	-999	-999	n/a	n/a	-999	12	[6, 5, 3]	14	0	1	0	n/a	n/a	0.0	0	0	0	PAL2	1	R1003P
2190.78	4.235	1383405	PROB	4.211	n/a	n/a	n/a	-999	-999	n/a	n/a	-999	12	[3, 9, 5]	17	0	1	0	n/a	n/a	0.0	0	0	0	PAL2	1	R1003P
2195.015	2.416	1385522	PROB	2.383	n/a	n/a	n/a	-999	-999	n/a	n/a	-999	12	[5, 2, 8]	15	0	1	0	n/a	n/a	0.0	0	0	0	PAL2	1	R1003P
2197.431	2.785	1386730	PROB	2.76	n/a	n/a	n/a	-999	-999	n/a	n/a	-999	12	[2, 1, 4]	7	0	1	0	n/a	n/a	0.0	0	0	0	PAL2	1	R1003P
2200.216	3.15	1388123	PROB	3.15	n/a	n/a	n/a	-999	-999	n/a	n/a	-999	12	[6, 3, 3]	12	0	1	0	n/a	n/a	0.0	0	0	0	PAL2	1	R1003P
2203.366	0.017	1389698	STOP	n/a	n/a	n/a	n/a	-999	-999	n/a	n/a	-999	12	[-999, -999, -999]	n/a	0	1	0	n/a	n/a	0.0	0	0	0	PAL2	1	R1003P
2203.383	0.0	1389706	MATH_END	n/a	n/a	n/a	n/a	-999	-999	n/a	n/a	-999	12	[0, 0, 0]	n/a	0	1	0	n/a	n/a	0.0	0	0	0	PAL2	1	R1003P
2203.383	0.016	1389706	TEST_START	n/a	n/a	n/a	n/a	-999	-999	n/a	n/a	-999	12	[0, 0, 0]	n/a	0	1	0	n/a	n/a	0.0	0	0	0	PAL2	1	R1003P
2203.399	0.25	1389714	TEST_ORIENT	n/a	n/a	JAR	EEL	1	1	JAR	EEL	1	12	[0, 0, 0]	n/a	0	1	0	n/a	n/a	0.0	0	0	0	PAL2	1	R1003P
2204.333	4.0	1390181	TEST_PROBE	n/a	wordpools/wordpool_EN.txt	JAR	EEL	1	1	JAR	EEL	1	12	[0, 0, 0]	n/a	0	1	0	n/a	n/a	0.0	0	0	0	PAL2	1	R1003P
2204.333	1.949	1390181	REC_START	n/a	n/a	n/a	n/a	1	-999	n/a	EEL	1	12	[0, 0, 0]	n/a	0	1	0	n/a	n/a	0.0	0	0	0	PAL2	1	R1003P
2206.282	3.068	1391156	REC_EVENT	1.949	n/a	JAR	EEL	1	1	JAR	EEL	1	12	[0, 0, 0]	n/a	0	1	0	n/a	n/a	0.0	0	0	0	PAL2	1	R1003P
2209.35	0.017	1392690	REC_END	n/a	n/a	n/a	n/a	1	-999	n/a	n/a	-999	12	[0, 0, 0]	n/a	0	1	0	n/a	n/a	0.0	0	0	0	PAL2	1	R1003P
2209.367	0.25	1392698	TEST_ORIENT	n/a	n/a	WING	ROAD	6	2	WING	PASS	0	12	[0, 0, 0]	n/a	0	1	0	n/a	n/a	0.0	0	0	0	PAL2	1	R1003P
2210.006	4.6	1393018	STIM_ON	n/a	n/a	WING	ROAD	6	2	WING	PASS	0	12	[0, 0, 0]	n/a	1	1	4600	DA1	DA2	1500.0	50	230	300	PAL2	1	R1003P
2210.218	4.0	1393124	TEST_PROBE	n/a	wordpools/wordpool_EN.txt	WING	ROAD	6	2	WING	PASS	0	12	[0, 0, 0]	n/a	1	1	4600	DA1	DA2	1500.0	50	230	300	PAL2	1	R1003P
2210.219	1.172	1393124	REC_START	n/a	n/a	n/a	n/a	6	-999	n/a	PASS	0	12	[0, 0, 0]	n/a	1	1	4600	DA1	DA2	1500.0	50	230	300	PAL2	1	R1003P
2211.391	3.828	1393710	REC_EVENT	1.172	n/a	WING	ROAD	6	2	WING	PASS	0	12	[0, 0, 0]	n/a	1	1	4600	DA1	DA2	1500.0	50	230	300	PAL2	1	R1003P
2215.219	0.017	1395624	REC_END	n/a	n/a	n/a	n/a	6	-999	n/a	n/a	-999	12	[0, 0, 0]	n/a	0	1	0	n/a	n/a	0.0	0	0	0	PAL2	1	R1003P
2215.236	0.25	1395632	TEST_ORIENT	n/a	n/a	SPEAR	MOOSE	3	3	MOOSE	WOOD	0	12	[0, 0, 0]	n/a	0	1	0	n/a	n/a	0.0	0	0	0	PAL2	1	R1003P
2216.236	4.0	1396132	TEST_PROBE	n/a	wordpools/wordpool_EN.txt	SPEAR	MOOSE	3	3	MOOSE	WOOD	0	12	[0, 0, 0]	n/a	0	1	0	n/a	n/a	0.0	0	0	0	PAL2	1	R1003P
2216.236	1.178	1396132	REC_START	n/a	n/a	n/a	n/a	3	-999	n/a	WOOD	0	12	[0, 0, 0]	n/a	0	1	0	n/a	n/a	0.0	0	0	0	PAL2	1	R1003P
2217.414	3.838	1396721	REC_EVENT	1.178	n/a	SPEAR	MOOSE	3	3	MOOSE	WOOD	0	12	[0, 0, 0]	n/a	0	1	0	n/a	n/a	0.0	0	0	0	PAL2	1	R1003P
2221.252	0.017	1398640	REC_END	n/a	n/a	n/a	n/a	3	-999	n/a	n/a	-999	12	[0, 0, 0]	n/a	0	1	0	n/a	n/a	0.0	0	0	0	PAL2	1	R1003P
2221.269	0.25	1398649	TEST_ORIENT	n/a	n/a	WOOD	MOON	2	4	MOON	PASS	0	12	[0, 0, 0]	n/a	0	1	0	n/a	n/a	0.0	0	0	0	PAL2	1	R1003P
2222.055	4.6	1399042	STIM_ON	n/a	n/a	WOOD	MOON	2	4	MOON	PASS	0	12	[0, 0, 0]	n/a	1	1	4600	DA1	DA2	1500.0	50	230	300	PAL2	1	R1003P
2222.27	4.0	1399149	TEST_PROBE	n/a	wordpools/wordpool_EN.txt	WOOD	MOON	2	4	MOON	PASS	0	12	[0, 0, 0]	n/a	1	1	4600	DA1	DA2	1500.0	50	230	300	PAL2	1	R1003P
2222.27	2.718	1399149	REC_START	n/a	n/a	n/a	n/a	2	-999	n/a	PASS	0	12	[0, 0, 0]	n/a	1	1	4600	DA1	DA2	1500.0	50	230	300	PAL2	1	R1003P
2224.988	2.299	1400508	REC_EVENT	2.718	n/a	WOOD	MOON	2	4	MOON	PASS	0	12	[0, 0, 0]	n/a	1	1	4600	DA1	DA2	1500.0	50	230	300	PAL2	1	R1003P
2227.287	0.017	1401658	REC_END	n/a	n/a	n/a	n/a	2	-999	n/a	n/a	-999	12	[0, 0, 0]	n/a	0	1	0	n/a	n/a	0.0	0	0	0	PAL2	1	R1003P
2227.304	0.25	1401666	TEST_ORIENT	n/a	n/a	BLUSH	PANTS	5	5	BLUSH	PASS	0	12	[0, 0, 0]	n/a	0	1	0	n/a	n/a	0.0	0	0	0	PAL2	1	R1003P
2228.337	4.0	1402183	TEST_PROBE	n/a	wordpools/wordpool_EN.txt	BLUSH	PANTS	5	5	BLUSH	PASS	0	12	[0, 0, 0]	n/a	0	1	0	n/a	n/a	0.0	0	0	0	PAL2	1	R1003P
2228.338	2.011	1402183	REC_START	n/a	n/a	n/a	n/a	5	-999	n/a	PASS	0	12	[0, 0, 0]	n/a	0	1	0	n/a	n/a	0.0	0	0	0	PAL2	1	R1003P
2230.349	2.998	1403189	REC_EVENT	2.011	n/a	BLUSH	PANTS	5	5	BLUSH	PASS	0	12	[0, 0, 0]	n/a	0	1	0	n/a	n/a	0.0	0	0	0	PAL2	1	R1003P
2233.347	0.008	1404687	REC_END	n/a	n/a	n/a	n/a	5	-999	n/a	n/a	-999	12	[0, 0, 0]	n/a	0	1	0	n/a	n/a	0.0	0	0	0	PAL2	1	R1003P
2233.355	0.25	1404691	TEST_ORIENT	n/a	n/a	SNAKE	DUCK	4	6	SNAKE	PASS	0	12	[0, 0, 0]	n/a	0	1	0	n/a	n/a	0.0	0	0	0	PAL2	1	R1003P
2233.941	4.6	1404984	STIM_ON	n/a	n/a	SNAKE	DUCK	4	6	SNAKE	PASS	0	12	[0, 0, 0]	n/a	1	1	4600	DA1	DA2	1500.0	50	230	300	PAL2	1	R1003P
2234.156	4.0	1405092	TEST_PROBE	n/a	wordpools/wordpool_EN.txt	SNAKE	DUCK	4	6	SNAKE	PASS	0	12	[0, 0, 0]	n/a	1	1	4600	DA1	DA2	1500.0	50	230	300	PAL2	1	R1003P
2234.157	3.164	1405092	REC_START	n/a	n/a	n/a	n/a	4	-999	n/a	PASS	0	12	[0, 0, 0]	n/a	1	1	4600	DA1	DA2	1500.0	50	230	300	PAL2	1	R1003P
2237.321	1.845	1406674	REC_EVENT	3.164	n/a	SNAKE	DUCK	4	6	SNAKE	PASS	0	12	[0, 0, 0]	n/a	1	1	4600	DA1	DA2	1500.0	50	230	300	PAL2	1	R1003P
2239.166	0.809	1407597	REC_END	n/a	n/a	n/a	n/a	4	-999	n/a	n/a	-999	12	[0, 0, 0]	n/a	0	1	0	n/a	n/a	0.0	0	0	0	PAL2	1	R1003P
2239.975	10.45	1408001	ENCODING_START	n/a	n/a	n/a	n/a	0	-999	n/a	n/a	-999	13	[0, 0, 0]	n/a	0	1	0	n/a	n/a	0.0	0	0	0	PAL2	1	R1003P
2250.425	0.25	1413226	STUDY_ORIENT	n/a	n/a	CUP	HILL	1	5	HILL	PASS	0	13	[0, 0, 0]	n/a	0	1	0	n/a	n/a	0.0	0	0	0	PAL2	1	R1003P
2251.342	4.0	1413684	STUDY_PAIR	n/a	wordpools/wordpool_EN.txt	CUP	HILL	1	5	HILL	PASS	0	13	[0, 0, 0]	n/a	0	1	0	n/a	n/a	0.0	0	0	0	PAL2	1	R1003P
2256.376	0.25	1416201	STUDY_ORIENT	n/a	n/a	CRANE	BATH	2	2	BATH	PASS	0	13	[0, 0, 0]	n/a	0	1	0	n/a	n/a	0.0	0	0	0	PAL2	1	R1003P
2257.177	4.0	1416602	STUDY_PAIR	n/a	wordpools/wordpool_EN.txt	CRANE	BATH	2	2	BATH	PASS	0	13	[0, 0, 0]	n/a	0	1	0	n/a	n/a	0.0	0	0	0	PAL2	1	R1003P
2262.195	0.25	1419111	STUDY_ORIENT	n/a	n/a	JET	GLOVE	3	1	GLOVE	PASS	0	13	[0, 0, 0]	n/a	0	1	0	n/a	n/a	0.0	0	0	0	PAL2	1	R1003P
2262.978	4.0	1419502	STUDY_PAIR	n/a	wordpools/wordpool_EN.txt	JET	GLOVE	3	1	GLOVE	PASS	0	13	[0, 0, 0]	n/a	0	1	0	n/a	n/a	0.0	0	0	0	PAL2	1	R1003P
2267.996	0.25	1422011	STUDY_ORIENT	n/a	n/a	SHELL	BED	4	6	SHELL	PASS	0	13	[0, 0, 0]	n/a	0	1	0	n/a	n/a	0.0	0	0	0	PAL2	1	R1003P
2268.862	4.0	1422444	STUDY_PAIR	n/a	wordpools/wordpool_EN.txt	SHELL	BED	4	6	SHELL	PASS	0	13	[0, 0, 0]	n/a	0	1	0	n/a	n/a	0.0	0	0	0	PAL2	1	R1003P
2273.896	0.25	1424961	STUDY_ORIENT	n/a	n/a	TIE	BRANCH	5	3	BRANCH	PASS	0	13	[0, 0, 0]	n/a	0	1	0	n/a	n/a	0.0	0	0	0	PAL2	1	R1003P
2274.83	4.0	1425428	STUDY_PAIR	n/a	wordpools/wordpool_EN.txt	TIE	BRANCH	5	3	BRANCH	PASS	0	13	[0, 0, 0]	n/a	0	1	0	n/a	n/a	0.0	0	0	0	PAL2	1	R1003P
2279.864	0.25	1427945	STUDY_ORIENT	n/a	n/a	ANT	MUG	6	4	ANT	EEL	0	13	[0, 0, 0]	n/a	0	1	0	n/a	n/a	0.0	0	0	0	PAL2	1	R1003P
2280.647	4.0	1428336	STUDY_PAIR	n/a	wordpools/wordpool_EN.txt	ANT	MUG	6	4	ANT	EEL	0	13	[0, 0, 0]	n/a	0	1	0	n/a	n/a	0.0	0	0	0	PAL2	1	R1003P
2284.648	1.0	1430337	START	n/a	n/a	n/a	n/a	-999	-999	n/a	n/a	-999	13	[-999, -999, -999]	n/a	0	1	0	n/a	n/a	0.0	0	0	0	PAL2	1	R1003P
2285.648	0.017	1430837	MATH_START	n/a	n/a	n/a	n/a	-999	-999	n/a	n/a	-999	13	[0, 0, 0]	n/a	0	1	0	n/a	n/a	0.0	0	0	0	PAL2	1	R1003P
2285.665	3.217	1430845	PROB	3.197	n/a	n/a	n/a	-999	-999	n/a	n/a	-999	13	[7, 3, 1]	11	0	1	0	n/a	n/a	0.0	0	0	0	PAL2	1	R1003P
2288.882	2.367	1432454	PROB	2.341	n/a	n/a	n/a	-999	-999	n/a	n/a	-999	13	[5, 8, 2]	15	0	1	0	n/a	n/a	0.0	0	0	0	PAL2	1	R1003P
2291.249	5.118	1433637	PROB	5.085	n/a	n/a	n/a	-999	-999	n/a	n/a	-999	13	[9, 8, 3]	20	0	1	0	n/a	n/a	0.0	0	0	0	PAL2	1	R1003P
2296.367	4.034	1436196	PROB	3.999	n/a	n/a	n/a	-999	-999	n/a	n/a	-999	13	[1, 4, 7]	12	0	1	0	n/a	n/a	0.0	0	0	0	PAL2	1	R1003P
2300.401	2.151	1438213	PROB	2.117	n/a	n/a	n/a	-999	-999	n/a	n/a	-999	13	[1, 8, 6]	15	0	1	0	n/a	n/a	0.0	0	0	0	PAL2	1	R1003P
2302.552	2.11	1439288	PROB	2.11	n/a	n/a	n/a	-999	-999	n/a	n/a	-999	13	[7, 3, 9]	19	0	1	0	n/a	n/a	0.0	0	0	0	PAL2	1	R1003P
2304.662	0.007	1440343	STOP	n/a	n/a	n/a	n/a	-999	-999	n/a	n/a	-999	13	[-999, -999, -999]	n/a	0	1	0	n/a	n/a	0.0	0	0	0	PAL2	1	R1003P
2304.669	0.0	1440347	MATH_END	n/a	n/a	n/a	n/a	-999	-999	n/a	n/a	-999	13	[0, 0, 0]	n/a	0	1	0	n/a	n/a	0.0	0	0	0	PAL2	1	R1003P
2304.669	0.016	1440347	TEST_START	n/a	n/a	n/a	n/a	-999	-999	n/a	n/a	-999	13	[0, 0, 0]	n/a	0	1	0	n/a	n/a	0.0	0	0	0	PAL2	1	R1003P
2304.685	0.25	1440355	TEST_ORIENT	n/a	n/a	JET	GLOVE	3	1	GLOVE	PASS	0	13	[0, 0, 0]	n/a	0	1	0	n/a	n/a	0.0	0	0	0	PAL2	1	R1003P
2305.397	4.6	1440711	STIM_ON	n/a	n/a	JET	GLOVE	3	1	GLOVE	PASS	0	13	[0, 0, 0]	n/a	1	1	4600	DA1	DA2	1500.0	50	230	300	PAL2	1	R1003P
2305.602	4.0	1440813	TEST_PROBE	n/a	wordpools/wordpool_EN.txt	JET	GLOVE	3	1	GLOVE	PASS	0	13	[0, 0, 0]	n/a	1	1	4600	DA1	DA2	1500.0	50	230	300	PAL2	1	R1003P
2305.603	1.871	1440814	REC_START	n/a	n/a	n/a	n/a	3	-999	n/a	PASS	0	13	[0, 0, 0]	n/a	1	1	4600	DA1	DA2	1500.0	50	230	300	PAL2	1	R1003P
2307.474	3.138	1441749	REC_EVENT	1.871	n/a	JET	GLOVE	3	1	GLOVE	PASS	0	13	[0, 0, 0]	n/a	1	1	4600	DA1	DA2	1500.0	50	230	300	PAL2	1	R1003P
2310.612	0.008	1443318	REC_END	n/a	n/a	n/a	n/a	3	-999	n/a	n/a	-999	13	[0, 0, 0]	n/a	0	1	0	n/a	n/a	0.0	0	0	0	PAL2	1	R1003P
2310.62	0.25	1443322	TEST_ORIENT	n/a	n/a	CRANE	BATH	2	2	BATH	PASS	0	13	[0, 0, 0]	n/a	0	1	0	n/a	n/a	0.0	0	0	0	PAL2	1	R1003P
2311.57	4.0	1443797	TEST_PROBE	n/a	wordpools/wordpool_EN.txt	CRANE	BATH	2	2	BATH	PASS	0	13	[0, 0, 0]	n/a	0	1	0	n/a	n/a	0.0	0	0	0	PAL2	1	R1003P
2311.571	2.406	1443797	REC_START	n/a	n/a	n/a	n/a	2	-999	n/a	PASS	0	13	[0, 0, 0]	n/a	0	1	0	n/a	n/a	0.0	0	0	0	PAL2	1	R1003P
2313.977	2.62	1445000	REC_EVENT	2.406	n/a	CRANE	BATH	2	2	BATH	PASS	0	13	[0, 0, 0]	n/a	0	1	0	n/a	n/a	0.0	0	0	0	PAL2	1	R1003P
2316.597	0.007	1446310	REC_END	n/a	n/a	n/a	n/a	2	-999	n/a	n/a	-999	13	[0, 0, 0]	n/a	0	1	0	n/a	n/a	0.0	0	0	0	PAL2	1	R1003P
2316.604	0.25	1446314	TEST_ORIENT	n/a	n/a	TIE	BRANCH	5	3	BRANCH	PASS	0	13	[0, 0, 0]	n/a	0	1	0	n/a	n/a	0.0	0	0	0	PAL2	1	R1003P
2317.432	4.6	1446728	STIM_ON	n/a	n/a	TIE	BRANCH	5	3	BRANCH	PASS	0	13	[0, 0, 0]	n/a	1	1	4600	DA1	DA2	1500.0	50	230	300	PAL2	1	R1003P
2317.638	0.0	1446831	REC_START	n/a	n/a	n/a	n/a	5	-999	n/a	PASS	0	13	[0, 0, 0]	n/a	1	1	4600	DA1	DA2	1500.0	50	230	300	PAL2	1	R1003P
2317.638	4.0	1446831	TEST_PROBE	n/a	wordpools/wordpool_EN.txt	TIE	BRANCH	5	3	BRANCH	PASS	0	13	[0, 0, 0]	n/a	1	1	4600	DA1	DA2	1500.0	50	230	300	PAL2	1	R1003P
2320.002	2.653	1448013	REC_EVENT	2.364	n/a	TIE	BRANCH	5	3	BRANCH	PASS	0	13	[0, 0, 0]	n/a	1	1	4600	DA1	DA2	1500.0	50	230	300	PAL2	1	R1003P
2322.655	0.017	1449339	REC_END	n/a	n/a	n/a	n/a	5	-999	n/a	n/a	-999	13	[0, 0, 0]	n/a	0	1	0	n/a	n/a	0.0	0	0	0	PAL2	1	R1003P
2322.672	0.25	1449348	TEST_ORIENT	n/a	n/a	ANT	MUG	6	4	ANT	EEL	0	13	[0, 0, 0]	n/a	0	1	0	n/a	n/a	0.0	0	0	0	PAL2	1	R1003P
2323.456	4.0	1449740	TEST_PROBE	n/a	wordpools/wordpool_EN.txt	ANT	MUG	6	4	ANT	EEL	0	13	[0, 0, 0]	n/a	0	1	0	n/a	n/a	0.0	0	0	0	PAL2	1	R1003P
2323.456	1.465	1449740	REC_START	n/a	n/a	n/a	n/a	6	-999	n/a	EEL	0	13	[0, 0, 0]	n/a	0	1	0	n/a	n/a	0.0	0	0	0	PAL2	1	R1003P
2324.921	3.552	1450472	REC_EVENT	1.465	n/a	ANT	MUG	6	4	ANT	EEL	0	13	[0, 0, 0]	n/a	0	1	0	n/a	n/a	0.0	0	0	0	PAL2	1	R1003P
2328.473	0.017	1452248	REC_END	n/a	n/a	n/a	n/a	6	-999	n/a	n/a	-999	13	[0, 0, 0]	n/a	0	1	0	n/a	n/a	0.0	0	0	0	PAL2	1	R1003P
2328.49	0.25	1452256	TEST_ORIENT	n/a	n/a	CUP	HILL	1	5	HILL	PASS	0	13	[0, 0, 0]	n/a	0	1	0	n/a	n/a	0.0	0	0	0	PAL2	1	R1003P
2329.136	4.6	1452579	STIM_ON	n/a	n/a	CUP	HILL	1	5	HILL	PASS	0	13	[0, 0, 0]	n/a	1	1	4600	DA1	DA2	1500.0	50	230	300	PAL2	1	R1003P
2329.34	4.0	1452681	TEST_PROBE	n/a	wordpools/wordpool_EN.txt	CUP	HILL	1	5	HILL	PASS	0	13	[0, 0, 0]	n/a	1	1	4600	DA1	DA2	1500.0	50	230	300	PAL2	1	R1003P
2329.341	2.347	1452682	REC_START	n/a	n/a	n/a	n/a	1	-999	n/a	PASS	0	13	[0, 0, 0]	n/a	1	1	4600	DA1	DA2	1500.0	50	230	300	PAL2	1	R1003P
2331.688	2.653	1453855	REC_EVENT	2.347	n/a	CUP	HILL	1	5	HILL	PASS	0	13	[0, 0, 0]	n/a	1	1	4600	DA1	DA2	1500.0	50	230	300	PAL2	1	R1003P
2334.341	0.017	1455182	REC_END	n/a	n/a	n/a	n/a	1	-999	n/a	n/a	-999	13	[0, 0, 0]	n/a	0	1	0	n/a	n/a	0.0	0	0	0	PAL2	1	R1003P
2334.358	0.25	1455190	TEST_ORIENT	n/a	n/a	SHELL	BED	4	6	SHELL	PASS	0	13	[0, 0, 0]	n/a	0	1	0	n/a	n/a	0.0	0	0	0	PAL2	1	R1003P
2335.391	4.0	1455707	TEST_PROBE	n/a	wordpools/wordpool_EN.txt	SHELL	BED	4	6	SHELL	PASS	0	13	[0, 0, 0]	n/a	0	1	0	n/a	n/a	0.0	0	0	0	PAL2	1	R1003P
2335.392	1.443	1455707	REC_START	n/a	n/a	n/a	n/a	4	-999	n/a	PASS	0	13	[0, 0, 0]	n/a	0	1	0	n/a	n/a	0.0	0	0	0	PAL2	1	R1003P
2336.835	3.566	1456429	REC_EVENT	1.443	n/a	SHELL	BED	4	6	SHELL	PASS	0	13	[0, 0, 0]	n/a	0	1	0	n/a	n/a	0.0	0	0	0	PAL2	1	R1003P
2340.401	0.901	1458212	REC_END	n/a	n/a	n/a	n/a	4	-999	n/a	n/a	-999	13	[0, 0, 0]	n/a	0	1	0	n/a	n/a	0.0	0	0	0	PAL2	1	R1003P
2341.302	10.443	1458662	ENCODING_START	n/a	n/a	n/a	n/a	0	-999	n/a	n/a	-999	14	[0, 0, 0]	n/a	0	1	0	n/a	n/a	0.0	0	0	0	PAL2	1	R1003P
2351.745	0.25	1463883	STUDY_ORIENT	n/a	n/a	STREET	DRESS	1	1	DRESS	PASS	0	14	[0, 0, 0]	n/a	0	1	0	n/a	n/a	0.0	0	0	0	PAL2	1	R1003P
2352.547	4.6	1464284	STIM_ON	n/a	n/a	STREET	DRESS	1	1	DRESS	PASS	0	14	[0, 0, 0]	n/a	1	1	4600	DA1	DA2	1500.0	50	230	300	PAL2	1	R1003P
2352.761	4.0	1464391	STUDY_PAIR	n/a	wordpools/wordpool_EN.txt	STREET	DRESS	1	1	DRESS	PASS	0	14	[0, 0, 0]	n/a	1	1	4600	DA1	DA2	1500.0	50	230	300	PAL2	1	R1003P
2357.779	0.25	1466900	STUDY_ORIENT	n/a	n/a	STOOL	GLASS	2	2	GLASS	STOOL	1	14	[0, 0, 0]	n/a	0	1	0	n/a	n/a	0.0	0	0	0	PAL2	1	R1003P
2358.562	4.0	1467292	STUDY_PAIR	n/a	wordpools/wordpool_EN.txt	STOOL	GLASS	2	2	GLASS	STOOL	1	14	[0, 0, 0]	n/a	0	1	0	n/a	n/a	0.0	0	0	0	PAL2	1	R1003P
2363.58	0.25	1469801	STUDY_ORIENT	n/a	n/a	DESK	DOG	3	5	DOG	EAR	0	14	[0, 0, 0]	n/a	0	1	0	n/a	n/a	0.0	0	0	0	PAL2	1	R1003P
2364.328	4.6	1470175	STIM_ON	n/a	n/a	DESK	DOG	3	5	DOG	EAR	0	14	[0, 0, 0]	n/a	1	1	4600	DA1	DA2	1500.0	50	230	300	PAL2	1	R1003P
2364.53	4.0	1470276	STUDY_PAIR	n/a	wordpools/wordpool_EN.txt	DESK	DOG	3	5	DOG	EAR	0	14	[0, 0, 0]	n/a	1	1	4600	DA1	DA2	1500.0	50	230	300	PAL2	1	R1003P
2369.548	0.25	1472784	STUDY_ORIENT	n/a	n/a	DITCH	SKUNK	4	6	DITCH	PASS	0	14	[0, 0, 0]	n/a	0	1	0	n/a	n/a	0.0	0	0	0	PAL2	1	R1003P
2370.531	4.0	1473276	STUDY_PAIR	n/a	wordpools/wordpool_EN.txt	DITCH	SKUNK	4	6	DITCH	PASS	0	14	[0, 0, 0]	n/a	0	1	0	n/a	n/a	0.0	0	0	0	PAL2	1	R1003P
2375.549	0.25	1475785	STUDY_ORIENT	n/a	n/a	EGG	RUG	5	3	EGG	PASS	0	14	[0, 0, 0]	n/a	0	1	0	n/a	n/a	0.0	0	0	0	PAL2	1	R1003P
2376.328	4.6	1476174	STIM_ON	n/a	n/a	EGG	RUG	5	3	EGG	PASS	0	14	[0, 0, 0]	n/a	1	1	4600	DA1	DA2	1500.0	50	230	300	PAL2	1	R1003P
2376.533	4.0	1476277	STUDY_PAIR	n/a	wordpools/wordpool_EN.txt	EGG	RUG	5	3	EGG	PASS	0	14	[0, 0, 0]	n/a	1	1	4600	DA1	DA2	1500.0	50	230	300	PAL2	1	R1003P
2381.567	0.25	1478794	STUDY_ORIENT	n/a	n/a	SKI	STAR	6	4	SKI	PASS	0	14	[0, 0, 0]	n/a	0	1	0	n/a	n/a	0.0	0	0	0	PAL2	1	R1003P
2382.367	4.0	1479194	STUDY_PAIR	n/a	wordpools/wordpool_EN.txt	SKI	STAR	6	4	SKI	PASS	0	14	[0, 0, 0]	n/a	0	1	0	n/a	n/a	0.0	0	0	0	PAL2	1	R1003P
2386.368	1.0	1481194	START	n/a	n/a	n/a	n/a	-999	-999	n/a	n/a	-999	14	[-999, -999, -999]	n/a	0	1	0	n/a	n/a	0.0	0	0	0	PAL2	1	R1003P
2387.368	0.017	1481694	MATH_START	n/a	n/a	n/a	n/a	-999	-999	n/a	n/a	-999	14	[0, 0, 0]	n/a	0	1	0	n/a	n/a	0.0	0	0	0	PAL2	1	R1003P
2387.385	2.618	1481702	PROB	2.582	n/a	n/a	n/a	-999	-999	n/a	n/a	-999	14	[2, 3, 3]	8	0	1	0	n/a	n/a	0.0	0	0	0	PAL2	1	R1003P
2390.003	3.134	1483011	PROB	3.108	n/a	n/a	n/a	-999	-999	n/a	n/a	-999	14	[6, 3, 3]	12	0	1	0	n/a	n/a	0.0	0	0	0	PAL2	1	R1003P
2393.137	2.183	1484578	PROB	2.149	n/a	n/a	n/a	-999	-999	n/a	n/a	-999	14	[1, 3, 3]	7	0	1	0	n/a	n/a	0.0	0	0	0	PAL2	1	R1003P
2395.32	3.701	1485670	PROB	3.671	n/a	n/a	n/a	-999	-999	n/a	n/a	-999	14	[6, 8, 3]	17	0	1	0	n/a	n/a	0.0	0	0	0	PAL2	1	R1003P
2399.021	2.617	1487520	PROB	2.593	n/a	n/a	n/a	-999	-999	n/a	n/a	-999	14	[8, 2, 2]	12	0	1	0	n/a	n/a	0.0	0	0	0	PAL2	1	R1003P
2401.638	9.128	1488829	PROB	9.128	n/a	n/a	n/a	-999	-999	n/a	n/a	-999	14	[8, 7, 6]	20	0	1	0	n/a	n/a	0.0	0	0	0	PAL2	1	R1003P
2410.766	0.007	1493392	STOP	n/a	n/a	n/a	n/a	-999	-999	n/a	n/a	-999	14	[-999, -999, -999]	n/a	0	1	0	n/a	n/a	0.0	0	0	0	PAL2	1	R1003P
2410.773	0.0	1493396	TEST_START	n/a	n/a	n/a	n/a	-999	-999	n/a	n/a	-999	14	[0, 0, 0]	n/a	0	1	0	n/a	n/a	0.0	0	0	0	PAL2	1	R1003P
2410.773	0.016	1493396	MATH_END	n/a	n/a	n/a	n/a	-999	-999	n/a	n/a	-999	14	[0, 0, 0]	n/a	0	1	0	n/a	n/a	0.0	0	0	0	PAL2	1	R1003P
2410.789	0.25	1493404	TEST_ORIENT	n/a	n/a	STREET	DRESS	1	1	DRESS	PASS	0	14	[0, 0, 0]	n/a	0	1	0	n/a	n/a	0.0	0	0	0	PAL2	1	R1003P
2411.772	4.0	1493895	TEST_PROBE	n/a	wordpools/wordpool_EN.txt	STREET	DRESS	1	1	DRESS	PASS	0	14	[0, 0, 0]	n/a	0	1	0	n/a	n/a	0.0	0	0	0	PAL2	1	R1003P
2411.773	3.0	1493896	REC_START	n/a	n/a	n/a	n/a	1	-999	n/a	PASS	0	14	[0, 0, 0]	n/a	0	1	0	n/a	n/a	0.0	0	0	0	PAL2	1	R1003P
2414.773	2.0	1495396	REC_EVENT	3.0	n/a	STREET	DRESS	1	1	DRESS	PASS	0	14	[0, 0, 0]	n/a	0	1	0	n/a	n/a	0.0	0	0	0	PAL2	1	R1003P
2416.773	0.017	1496396	REC_END	n/a	n/a	n/a	n/a	1	-999	n/a	n/a	-999	14	[0, 0, 0]	n/a	0	1	0	n/a	n/a	0.0	0	0	0	PAL2	1	R1003P
2416.79	0.25	1496404	TEST_ORIENT	n/a	n/a	STOOL	GLASS	2	2	GLASS	STOOL	1	14	[0, 0, 0]	n/a	0	1	0	n/a	n/a	0.0	0	0	0	PAL2	1	R1003P
2417.791	0.0	1496905	REC_START	n/a	n/a	n/a	n/a	2	-999	n/a	STOOL	1	14	[0, 0, 0]	n/a	0	1	0	n/a	n/a	0.0	0	0	0	PAL2	1	R1003P
2417.791	4.0	1496905	TEST_PROBE	n/a	wordpools/wordpool_EN.txt	STOOL	GLASS	2	2	GLASS	STOOL	1	14	[0, 0, 0]	n/a	0	1	0	n/a	n/a	0.0	0	0	0	PAL2	1	R1003P
