onset	duration	sample	trial_type	response_time	stim_file	study_1	study_2	serialpos	probepos	probe_word	resp_word	correct	list	test	answer	stimulation	stim_list	stim_duration	anode_label	cathode_label	amplitude	pulse_freq	n_pulses	pulse_width	experiment	session	subject
0.0	85.311	952561	SESS_START	n/a	n/a	n/a	n/a	-999	-999	n/a	n/a	-999	-999	[0, 0, 0]	n/a	0	0	0	n/a	n/a	0.0	0	0	0	PAL2	0	R1112M
85.311	1.017	995214	START	n/a	n/a	n/a	n/a	-999	-999	n/a	n/a	-999	-1	[-999, -999, -999]	n/a	0	-999	0	n/a	n/a	0.0	0	0	0	PAL2	0	R1112M
86.328	9.168	995723	PROB	9.143	n/a	n/a	n/a	-999	-999	n/a	n/a	-999	-1	[5, 3, 1]	9	0	-999	0	n/a	n/a	0.0	0	0	0	PAL2	0	R1112M
95.496	5.685	1000306	PROB	5.663	n/a	n/a	n/a	-999	-999	n/a	n/a	-999	-1	[2, 2, 4]	8	0	-999	0	n/a	n/a	0.0	0	0	0	PAL2	0	R1112M
101.181	13.498	1003149	PROB	13.498	n/a	n/a	n/a	-999	-999	n/a	n/a	-999	-1	[4, 7, 8]	19	0	-999	0	n/a	n/a	0.0	0	0	0	PAL2	0	R1112M
114.679	71.736	1009897	STOP	n/a	n/a	n/a	n/a	-999	-999	n/a	n/a	-999	-1	[-999, -999, -999]	n/a	0	-999	0	n/a	n/a	0.0	0	0	0	PAL2	0	R1112M
186.415	10.453	1045763	ENCODING_START	n/a	n/a	n/a	n/a	0	-999	n/a	n/a	-999	1	[0, 0, 0]	n/a	0	1	0	n/a	n/a	0.0	0	0	0	PAL2	0	R1112M
196.868	0.25	1050990	STUDY_ORIENT	n/a	n/a	GLASS	BAND	1	5	BAND	n/a	0	1	[0, 0, 0]	n/a	0	1	0	n/a	n/a	0.0	0	0	0	PAL2	0	R1112M
197.75	4.0	1051431	STUDY_PAIR	n/a	wordpools/wordpool_EN.txt	GLASS	BAND	1	5	BAND	n/a	0	1	[0, 0, 0]	n/a	0	1	0	n/a	n/a	0.0	0	0	0	PAL2	0	R1112M
202.769	0.25	1053940	STUDY_ORIENT	n/a	n/a	RIB	DART	2	2	DART	n/a	0	1	[0, 0, 0]	n/a	0	1	0	n/a	n/a	0.0	0	0	0	PAL2	0	R1112M
203.718	4.0	1054414	STUDY_PAIR	n/a	wordpools/wordpool_EN.txt	RIB	DART	2	2	DART	n/a	0	1	[0, 0, 0]	n/a	0	1	0	n/a	n/a	0.0	0	0	0	PAL2	0	R1112M
208.752	0.25	1056931	STUDY_ORIENT	n/a	n/a	MUD	ZOO	3	1	MUD	n/a	0	1	[0, 0, 0]	n/a	0	1	0	n/a	n/a	0.0	0	0	0	PAL2	0	R1112M
209.652	4.0	1057381	STUDY_PAIR	n/a	wordpools/wordpool_EN.txt	MUD	ZOO	3	1	MUD	n/a	0	1	[0, 0, 0]	n/a	0	1	0	n/a	n/a	0.0	0	0	0	PAL2	0	R1112M
214.67	0.25	1059890	STUDY_ORIENT	n/a	n/a	BEAK	LAND	4	6	LAND	n/a	0	1	[0, 0, 0]	n/a	0	1	0	n/a	n/a	0.0	0	0	0	PAL2	0	R1112M
215.52	4.0	1060315	STUDY_PAIR	n/a	wordpools/wordpool_EN.txt	BEAK	LAND	4	6	LAND	n/a	0	1	[0, 0, 0]	n/a	0	1	0	n/a	n/a	0.0	0	0	0	PAL2	0	R1112M
220.538	0.25	1062824	STUDY_ORIENT	n/a	n/a	BOARD	HAND	5	3	HAND	n/a	0	1	[0, 0, 0]	n/a	0	1	0	n/a	n/a	0.0	0	0	0	PAL2	0	R1112M
221.321	4.0	1063215	STUDY_PAIR	n/a	wordpools/wordpool_EN.txt	BOARD	HAND	5	3	HAND	n/a	0	1	[0, 0, 0]	n/a	0	1	0	n/a	n/a	0.0	0	0	0	PAL2	0	R1112M
226.339	0.25	1065724	STUDY_ORIENT	n/a	n/a	RAKE	SLIME	6	4	RAKE	SNAKE	0	1	[0, 0, 0]	n/a	0	1	0	n/a	n/a	0.0	0	0	0	PAL2	0	R1112M
227.323	4.0	1066216	STUDY_PAIR	n/a	wordpools/wordpool_EN.txt	RAKE	SLIME	6	4	RAKE	SNAKE	0	1	[0, 0, 0]	n/a	0	1	0	n/a	n/a	0.0	0	0	0	PAL2	0	R1112M
231.341	0.999	1068225	START	n/a	n/a	n/a	n/a	-999	-999	n/a	n/a	-999	1	[-999, -999, -999]	n/a	0	1	0	n/a	n/a	0.0	0	0	0	PAL2	0	R1112M
232.34	0.017	1068725	MATH_START	n/a	n/a	n/a	n/a	-999	-999	n/a	n/a	-999	1	[0, 0, 0]	n/a	0	1	0	n/a	n/a	0.0	0	0	0	PAL2	0	R1112M
232.357	11.52	1068733	PROB	11.491	n/a	n/a	n/a	-999	-999	n/a	n/a	-999	1	[9, 6, 9]	24	0	1	0	n/a	n/a	0.0	0	0	0	PAL2	0	R1112M
243.877	11.139	1074493	PROB	11.139	n/a	n/a	n/a	-999	-999	n/a	n/a	-999	1	[2, 6, 4]	12	0	1	0	n/a	n/a	0.0	0	0	0	PAL2	0	R1112M
255.016	0.013	1080062	STOP	n/a	n/a	n/a	n/a	-999	-999	n/a	n/a	-999	1	[-999, -999, -999]	n/a	0	1	0	n/a	n/a	0.0	0	0	0	PAL2	0	R1112M
255.029	0.0	1080069	MATH_END	n/a	n/a	n/a	n/a	-999	-999	n/a	n/a	-999	1	[0, 0, 0]	n/a	0	1	0	n/a	n/a	0.0	0	0	0	PAL2	0	R1112M
255.029	0.017	1080069	TEST_START	n/a	n/a	n/a	n/a	-999	-999	n/a	n/a	-999	1	[0, 0, 0]	n/a	0	1	0	n/a	n/a	0.0	0	0	0	PAL2	0	R1112M
255.046	0.25	1080077	TEST_ORIENT	n/a	n/a	MUD	ZOO	3	1	MUD	n/a	0	1	[0, 0, 0]	n/a	0	1	0	n/a	n/a	0.0	0	0	0	PAL2	0	R1112M
255.685	4.6	1080397	STIM_ON	n/a	n/a	MUD	ZOO	3	1	MUD	n/a	0	1	[0, 0, 0]	n/a	1	1	4600	RAD1	RAD2	500.0	50	230	300	PAL2	0	R1112M
255.896	4.0	1080502	TEST_PROBE	n/a	wordpools/wordpool_EN.txt	MUD	ZOO	3	1	MUD	n/a	0	1	[0, 0, 0]	n/a	1	1	4600	RAD1	RAD2	500.0	50	230	300	PAL2	0	R1112M
255.896	5.015	1080502	REC_START	n/a	n/a	n/a	n/a	3	-999	n/a	n/a	0	1	[0, 0, 0]	n/a	1	1	4600	RAD1	RAD2	500.0	50	230	300	PAL2	0	R1112M
260.911	0.002	1083009	REC_EVENT	5.015	n/a	MUD	ZOO	3	1	MUD	<>	0	1	[0, 0, 0]	n/a	0	1	0	n/a	n/a	0.0	0	0	0	PAL2	0	R1112M
260.913	0.017	1083010	REC_END	n/a	n/a	n/a	n/a	3	-999	n/a	n/a	-999	1	[0, 0, 0]	n/a	0	1	0	n/a	n/a	0.0	0	0	0	PAL2	0	R1112M
260.93	0.25	1083019	TEST_ORIENT	n/a	n/a	RIB	DART	2	2	DART	n/a	0	1	[0, 0, 0]	n/a	0	1	0	n/a	n/a	0.0	0	0	0	PAL2	0	R1112M
261.88	4.0	1083494	TEST_PROBE	n/a	wordpools/wordpool_EN.txt	RIB	DART	2	2	DART	n/a	0	1	[0, 0, 0]	n/a	0	1	0	n/a	n/a	0.0	0	0	0	PAL2	0	R1112M
261.881	5.009	1083494	REC_START	n/a	n/a	n/a	n/a	2	-999	n/a	n/a	0	1	[0, 0, 0]	n/a	0	1	0	n/a	n/a	0.0	0	0	0	PAL2	0	R1112M
266.89	0.0	1085999	REC_END	n/a	n/a	n/a	n/a	2	-999	n/a	n/a	-999	1	[0, 0, 0]	n/a	0	1	0	n/a	n/a	0.0	0	0	0	PAL2	0	R1112M
266.89	0.008	1085999	REC_EVENT	5.009	n/a	RIB	DART	2	2	DART	<>	0	1	[0, 0, 0]	n/a	0	1	0	n/a	n/a	0.0	0	0	0	PAL2	0	R1112M
266.898	0.25	1086003	TEST_ORIENT	n/a	n/a	BOARD	HAND	5	3	HAND	n/a	0	1	[0, 0, 0]	n/a	0	1	0	n/a	n/a	0.0	0	0	0	PAL2	0	R1112M
267.641	4.6	1086374	STIM_ON	n/a	n/a	BOARD	HAND	5	3	HAND	n/a	0	1	[0, 0, 0]	n/a	1	1	4600	RAD1	RAD2	500.0	50	230	300	PAL2	0	R1112M
267.848	4.0	1086478	TEST_PROBE	n/a	wordpools/wordpool_EN.txt	BOARD	HAND	5	3	HAND	n/a	0	1	[0, 0, 0]	n/a	1	1	4600	RAD1	RAD2	500.0	50	230	300	PAL2	0	R1112M
267.849	0.277	1086478	REC_START	n/a	n/a	n/a	n/a	5	-999	n/a	n/a	0	1	[0, 0, 0]	n/a	1	1	4600	RAD1	RAD2	500.0	50	230	300	PAL2	0	R1112M
268.126	4.731	1086617	REC_EVENT	0.277	n/a	BOARD	HAND	5	3	HAND	<>	0	1	[0, 0, 0]	n/a	1	1	4600	RAD1	RAD2	500.0	50	230	300	PAL2	0	R1112M
272.857	0.009	1088982	REC_END	n/a	n/a	n/a	n/a	5	-999	n/a	n/a	-999	1	[0, 0, 0]	n/a	0	1	0	n/a	n/a	0.0	0	0	0	PAL2	0	R1112M
272.866	0.25	1088987	TEST_ORIENT	n/a	n/a	RAKE	SLIME	6	4	RAKE	SNAKE	0	1	[0, 0, 0]	n/a	0	1	0	n/a	n/a	0.0	0	0	0	PAL2	0	R1112M
273.883	4.0	1089495	TEST_PROBE	n/a	wordpools/wordpool_EN.txt	RAKE	SLIME	6	4	RAKE	SNAKE	0	1	[0, 0, 0]	n/a	0	1	0	n/a	n/a	0.0	0	0	0	PAL2	0	R1112M
273.883	2.729	1089495	REC_START	n/a	n/a	n/a	n/a	6	-999	n/a	SNAKE	0	1	[0, 0, 0]	n/a	0	1	0	n/a	n/a	0.0	0	0	0	PAL2	0	R1112M
276.612	2.288	1090859	REC_EVENT	2.729	n/a	RAKE	SLIME	6	4	RAKE	SNAKE	0	1	[0, 0, 0]	n/a	0	1	0	n/a	n/a	0.0	0	0	0	PAL2	0	R1112M
278.9	0.017	1092003	REC_END	n/a	n/a	n/a	n/a	6	-999	n/a	n/a	-999	1	[0, 0, 0]	n/a	0	1	0	n/a	n/a	0.0	0	0	0	PAL2	0	R1112M
278.917	0.25	1092012	TEST_ORIENT	n/a	n/a	GLASS	BAND	1	5	BAND	n/a	0	1	[0, 0, 0]	n/a	0	1	0	n/a	n/a	0.0	0	0	0	PAL2	0	R1112M
279.505	4.6	1092306	STIM_ON	n/a	n/a	GLASS	BAND	1	5	BAND	n/a	0	1	[0, 0, 0]	n/a	1	1	4600	RAD1	RAD2	500.0	50	230	300	PAL2	0	R1112M
279.716	4.0	1092411	TEST_PROBE	n/a	wordpools/wordpool_EN.txt	GLASS	BAND	1	5	BAND	n/a	0	1	[0, 0, 0]	n/a	1	1	4600	RAD1	RAD2	500.0	50	230	300	PAL2	0	R1112M
279.717	5.003	1092412	REC_START	n/a	n/a	n/a	n/a	1	-999	n/a	n/a	0	1	[0, 0, 0]	n/a	1	1	4600	RAD1	RAD2	500.0	50	230	300	PAL2	0	R1112M
284.72	0.005	1094913	REC_EVENT	5.003	n/a	GLASS	BAND	1	5	BAND	<>	0	1	[0, 0, 0]	n/a	0	1	0	n/a	n/a	0.0	0	0	0	PAL2	0	R1112M
284.725	0.009	1094916	REC_END	n/a	n/a	n/a	n/a	1	-999	n/a	n/a	-999	1	[0, 0, 0]	n/a	0	1	0	n/a	n/a	0.0	0	0	0	PAL2	0	R1112M
284.734	0.25	1094920	TEST_ORIENT	n/a	n/a	BEAK	LAND	4	6	LAND	n/a	0	1	[0, 0, 0]	n/a	0	1	0	n/a	n/a	0.0	0	0	0	PAL2	0	R1112M
285.651	4.0	1095379	TEST_PROBE	n/a	wordpools/wordpool_EN.txt	BEAK	LAND	4	6	LAND	n/a	0	1	[0, 0, 0]	n/a	0	1	0	n/a	n/a	0.0	0	0	0	PAL2	0	R1112M
285.651	5.015	1095379	REC_START	n/a	n/a	n/a	n/a	4	-999	n/a	n/a	0	1	[0, 0, 0]	n/a	0	1	0	n/a	n/a	0.0	0	0	0	PAL2	0	R1112M
290.666	0.002	1097886	REC_EVENT	5.015	n/a	BEAK	LAND	4	6	LAND	<>	0	1	[0, 0, 0]	n/a	0	1	0	n/a	n/a	0.0	0	0	0	PAL2	0	R1112M
290.668	13.875	1097887	REC_END	n/a	n/a	n/a	n/a	4	-999	n/a	n/a	-999	1	[0, 0, 0]	n/a	0	1	0	n/a	n/a	0.0	0	0	0	PAL2	0	R1112M
304.543	10.448	1104824	ENCODING_START	n/a	n/a	n/a	n/a	0	-999	n/a	n/a	-999	2	[0, 0, 0]	n/a	0	1	0	n/a	n/a	0.0	0	0	0	PAL2	0	R1112M
314.991	0.25	1110048	STUDY_ORIENT	n/a	n/a	CLOWN	PURSE	1	1	PURSE	n/a	0	2	[0, 0, 0]	n/a	0	1	0	n/a	n/a	0.0	0	0	0	PAL2	0	R1112M
315.791	4.0	1110448	STUDY_PAIR	n/a	wordpools/wordpool_EN.txt	CLOWN	PURSE	1	1	PURSE	n/a	0	2	[0, 0, 0]	n/a	0	1	0	n/a	n/a	0.0	0	0	0	PAL2	0	R1112M
320.809	0.25	1112957	STUDY_ORIENT	n/a	n/a	TRAIN	CLOTH	2	2	TRAIN	n/a	0	2	[0, 0, 0]	n/a	0	1	0	n/a	n/a	0.0	0	0	0	PAL2	0	R1112M
321.599	4.6	1113352	STIM_ON	n/a	n/a	TRAIN	CLOTH	2	2	TRAIN	n/a	0	2	[0, 0, 0]	n/a	1	1	4600	RAD1	RAD2	500.0	50	230	300	PAL2	0	R1112M
321.809	4.0	1113457	STUDY_PAIR	n/a	wordpools/wordpool_EN.txt	TRAIN	CLOTH	2	2	TRAIN	n/a	0	2	[0, 0, 0]	n/a	1	1	4600	RAD1	RAD2	500.0	50	230	300	PAL2	0	R1112M
326.843	0.25	1115974	STUDY_ORIENT	n/a	n/a	PARK	STRING	3	5	PARK	n/a	0	2	[0, 0, 0]	n/a	0	1	0	n/a	n/a	0.0	0	0	0	PAL2	0	R1112M
327.844	4.0	1116474	STUDY_PAIR	n/a	wordpools/wordpool_EN.txt	PARK	STRING	3	5	PARK	n/a	0	2	[0, 0, 0]	n/a	0	1	0	n/a	n/a	0.0	0	0	0	PAL2	0	R1112M
332.878	0.25	1118991	STUDY_ORIENT	n/a	n/a	BRICK	FROG	4	6	FROG	n/a	0	2	[0, 0, 0]	n/a	0	1	0	n/a	n/a	0.0	0	0	0	PAL2	0	R1112M
333.531	4.6	1119317	STIM_ON	n/a	n/a	BRICK	FROG	4	6	FROG	n/a	0	2	[0, 0, 0]	n/a	1	1	4600	RAD1	RAD2	500.0	50	230	300	PAL2	0	R1112M
333.744	4.0	1119424	STUDY_PAIR	n/a	wordpools/wordpool_EN.txt	BRICK	FROG	4	6	FROG	n/a	0	2	[0, 0, 0]	n/a	1	1	4600	RAD1	RAD2	500.0	50	230	300	PAL2	0	R1112M
338.779	0.25	1121941	STUDY_ORIENT	n/a	n/a	ROAD	EGG	5	3	ROAD	n/a	0	2	[0, 0, 0]	n/a	0	1	0	n/a	n/a	0.0	0	0	0	PAL2	0	R1112M
339.595	4.0	1122349	STUDY_PAIR	n/a	wordpools/wordpool_EN.txt	ROAD	EGG	5	3	ROAD	n/a	0	2	[0, 0, 0]	n/a	0	1	0	n/a	n/a	0.0	0	0	0	PAL2	0	R1112M
344.629	0.25	1124866	STUDY_ORIENT	n/a	n/a	VEST	PLANT	6	4	PLANT	n/a	0	2	[0, 0, 0]	n/a	0	1	0	n/a	n/a	0.0	0	0	0	PAL2	0	R1112M
345.394	4.6	1125249	STIM_ON	n/a	n/a	VEST	PLANT	6	4	PLANT	n/a	0	2	[0, 0, 0]	n/a	1	1	4600	RAD1	RAD2	500.0	50	230	300	PAL2	0	R1112M
345.596	4.0	1125350	STUDY_PAIR	n/a	wordpools/wordpool_EN.txt	VEST	PLANT	6	4	PLANT	n/a	0	2	[0, 0, 0]	n/a	1	1	4600	RAD1	RAD2	500.0	50	230	300	PAL2	0	R1112M
349.597	1.0	1127350	START	n/a	n/a	n/a	n/a	-999	-999	n/a	n/a	-999	2	[-999, -999, -999]	n/a	0	1	0	n/a	n/a	0.0	0	0	0	PAL2	0	R1112M
350.597	0.017	1127850	MATH_START	n/a	n/a	n/a	n/a	-999	-999	n/a	n/a	-999	2	[0, 0, 0]	n/a	0	1	0	n/a	n/a	0.0	0	0	0	PAL2	0	R1112M
350.614	16.204	1127858	PROB	16.178	n/a	n/a	n/a	-999	-999	n/a	n/a	-999	2	[4, 2, 9]	15	0	1	0	n/a	n/a	0.0	0	0	0	PAL2	0	R1112M
366.818	5.701	1135960	PROB	5.701	n/a	n/a	n/a	-999	-999	n/a	n/a	-999	2	[1, 6, 2]	9	0	1	0	n/a	n/a	0.0	0	0	0	PAL2	0	R1112M
372.519	0.016	1138810	STOP	n/a	n/a	n/a	n/a	-999	-999	n/a	n/a	-999	2	[-999, -999, -999]	n/a	0	1	0	n/a	n/a	0.0	0	0	0	PAL2	0	R1112M
372.535	0.0	1138818	MATH_END	n/a	n/a	n/a	n/a	-999	-999	n/a	n/a	-999	2	[0, 0, 0]	n/a	0	1	0	n/a	n/a	0.0	0	0	0	PAL2	0	R1112M
372.535	0.017	1138818	TEST_START	n/a	n/a	n/a	n/a	-999	-999	n/a	n/a	-999	2	[0, 0, 0]	n/a	0	1	0	n/a	n/a	0.0	0	0	0	PAL2	0	R1112M
372.552	0.25	1138827	TEST_ORIENT	n/a	n/a	CLOWN	PURSE	1	1	PURSE	n/a	0	2	[0, 0, 0]	n/a	0	1	0	n/a	n/a	0.0	0	0	0	PAL2	0	R1112M
373.518	4.0	1139310	TEST_PROBE	n/a	wordpools/wordpool_EN.txt	CLOWN	PURSE	1	1	PURSE	n/a	0	2	[0, 0, 0]	n/a	0	1	0	n/a	n/a	0.0	0	0	0	PAL2	0	R1112M
373.519	5.008	1139310	REC_START	n/a	n/a	n/a	n/a	1	-999	n/a	n/a	0	2	[0, 0, 0]	n/a	0	1	0	n/a	n/a	0.0	0	0	0	PAL2	0	R1112M
378.527	0.001	1141814	REC_END	n/a	n/a	n/a	n/a	1	-999	n/a	n/a	-999	2	[0, 0, 0]	n/a	0	1	0	n/a	n/a	0.0	0	0	0	PAL2	0	R1112M
378.528	0.008	1141815	REC_EVENT	5.009	n/a	CLOWN	PURSE	1	1	PURSE	<>	0	2	[0, 0, 0]	n/a	0	1	0	n/a	n/a	0.0	0	0	0	PAL2	0	R1112M
378.536	0.25	1141819	TEST_ORIENT	n/a	n/a	TRAIN	CLOTH	2	2	TRAIN	n/a	0	2	[0, 0, 0]	n/a	0	1	0	n/a	n/a	0.0	0	0	0	PAL2	0	R1112M
379.336	4.0	1142219	TEST_PROBE	n/a	wordpools/wordpool_EN.txt	TRAIN	CLOTH	2	2	TRAIN	n/a	0	2	[0, 0, 0]	n/a	0	1	0	n/a	n/a	0.0	0	0	0	PAL2	0	R1112M
379.337	4.998	1142219	REC_START	n/a	n/a	n/a	n/a	2	-999	n/a	n/a	0	2	[0, 0, 0]	n/a	0	1	0	n/a	n/a	0.0	0	0	0	PAL2	0	R1112M
384.335	0.002	1144718	REC_EVENT	4.998	n/a	TRAIN	CLOTH	2	2	TRAIN	<>	0	2	[0, 0, 0]	n/a	0	1	0	n/a	n/a	0.0	0	0	0	PAL2	0	R1112M
384.337	0.017	1144719	REC_END	n/a	n/a	n/a	n/a	2	-999	n/a	n/a	-999	2	[0, 0, 0]	n/a	0	1	0	n/a	n/a	0.0	0	0	0	PAL2	0	R1112M
384.354	0.25	1144727	TEST_ORIENT	n/a	n/a	ROAD	EGG	5	3	ROAD	n/a	0	2	[0, 0, 0]	n/a	0	1	0	n/a	n/a	0.0	0	0	0	PAL2	0	R1112M
385.254	4.0	1145177	TEST_PROBE	n/a	wordpools/wordpool_EN.txt	ROAD	EGG	5	3	ROAD	n/a	0	2	[0, 0, 0]	n/a	0	1	0	n/a	n/a	0.0	0	0	0	PAL2	0	R1112M
385.255	5.015	1145178	REC_START	n/a	n/a	n/a	n/a	5	-999	n/a	n/a	0	2	[0, 0, 0]	n/a	0	1	0	n/a	n/a	0.0	0	0	0	PAL2	0	R1112M
390.27	0.001	1147685	REC_EVENT	5.015	n/a	ROAD	EGG	5	3	ROAD	<>	0	2	[0, 0, 0]	n/a	0	1	0	n/a	n/a	0.0	0	0	0	PAL2	0	R1112M
390.271	0.017	1147686	REC_END	n/a	n/a	n/a	n/a	5	-999	n/a	n/a	-999	2	[0, 0, 0]	n/a	0	1	0	n/a	n/a	0.0	0	0	0	PAL2	0	R1112M
390.288	0.25	1147694	TEST_ORIENT	n/a	n/a	VEST	PLANT	6	4	PLANT	n/a	0	2	[0, 0, 0]	n/a	0	1	0	n/a	n/a	0.0	0	0	0	PAL2	0	R1112M
391.089	4.0	1148095	TEST_PROBE	n/a	wordpools/wordpool_EN.txt	VEST	PLANT	6	4	PLANT	n/a	0	2	[0, 0, 0]	n/a	0	1	0	n/a	n/a	0.0	0	0	0	PAL2	0	R1112M
391.09	5.008	1148095	REC_START	n/a	n/a	n/a	n/a	6	-999	n/a	n/a	0	2	[0, 0, 0]	n/a	0	1	0	n/a	n/a	0.0	0	0	0	PAL2	0	R1112M
396.098	0.001	1150599	REC_END	n/a	n/a	n/a	n/a	6	-999	n/a	n/a	-999	2	[0, 0, 0]	n/a	0	1	0	n/a	n/a	0.0	0	0	0	PAL2	0	R1112M
396.099	0.008	1150600	REC_EVENT	5.009	n/a	VEST	PLANT	6	4	PLANT	<>	0	2	[0, 0, 0]	n/a	0	1	0	n/a	n/a	0.0	0	0	0	PAL2	0	R1112M
396.107	0.25	1150604	TEST_ORIENT	n/a	n/a	PARK	STRING	3	5	PARK	n/a	0	2	[0, 0, 0]	n/a	0	1	0	n/a	n/a	0.0	0	0	0	PAL2	0	R1112M
397.091	4.0	1151096	TEST_PROBE	n/a	wordpools/wordpool_EN.txt	PARK	STRING	3	5	PARK	n/a	0	2	[0, 0, 0]	n/a	0	1	0	n/a	n/a	0.0	0	0	0	PAL2	0	R1112M
397.091	5.015	1151096	REC_START	n/a	n/a	n/a	n/a	3	-999	n/a	n/a	0	2	[0, 0, 0]	n/a	0	1	0	n/a	n/a	0.0	0	0	0	PAL2	0	R1112M
402.106	0.002	1153603	REC_EVENT	5.015	n/a	PARK	STRING	3	5	PARK	<>	0	2	[0, 0, 0]	n/a	0	1	0	n/a	n/a	0.0	0	0	0	PAL2	0	R1112M
402.108	0.017	1153604	REC_END	n/a	n/a	n/a	n/a	3	-999	n/a	n/a	-999	2	[0, 0, 0]	n/a	0	1	0	n/a	n/a	0.0	0	0	0	PAL2	0	R1112M
402.125	0.25	1153612	TEST_ORIENT	n/a	n/a	BRICK	FROG	4	6	FROG	n/a	0	2	[0, 0, 0]	n/a	0	1	0	n/a	n/a	0.0	0	0	0	PAL2	0	R1112M
403.025	4.0	1154062	TEST_PROBE	n/a	wordpools/wordpool_EN.txt	BRICK	FROG	4	6	FROG	n/a	0	2	[0, 0, 0]	n/a	0	1	0	n/a	n/a	0.0	0	0	0	PAL2	0	R1112M
403.026	5.0	1154063	REC_START	n/a	n/a	n/a	n/a	4	-999	n/a	n/a	0	2	[0, 0, 0]	n/a	0	1	0	n/a	n/a	0.0	0	0	0	PAL2	0	R1112M
408.026	0.003	1156563	REC_END	n/a	n/a	n/a	n/a	4	-999	n/a	n/a	-999	2	[0, 0, 0]	n/a	0	1	0	n/a	n/a	0.0	0	0	0	PAL2	0	R1112M
408.029	5.13	1156564	REC_EVENT	5.003	n/a	BRICK	FROG	4	6	FROG	<>	0	2	[0, 0, 0]	n/a	0	1	0	n/a	n/a	0.0	0	0	0	PAL2	0	R1112M
413.159	10.453	1159129	ENCODING_START	n/a	n/a	n/a	n/a	0	-999	n/a	n/a	-999	3	[0, 0, 0]	n/a	0	1	0	n/a	n/a	0.0	0	0	0	PAL2	0	R1112M
423.612	0.25	1164355	STUDY_ORIENT	n/a	n/a	SEED	BOOK	1	3	SEED	n/a	0	3	[0, 0, 0]	n/a	0	1	0	n/a	n/a	0.0	0	0	0	PAL2	0	R1112M
424.395	4.0	1164747	STUDY_PAIR	n/a	wordpools/wordpool_EN.txt	SEED	BOOK	1	3	SEED	n/a	0	3	[0, 0, 0]	n/a	0	1	0	n/a	n/a	0.0	0	0	0	PAL2	0	R1112M
429.413	0.25	1167256	STUDY_ORIENT	n/a	n/a	POLE	FISH	2	6	FISH	POLE	1	3	[0, 0, 0]	n/a	0	1	0	n/a	n/a	0.0	0	0	0	PAL2	0	R1112M
430.33	4.0	1167714	STUDY_PAIR	n/a	wordpools/wordpool_EN.txt	POLE	FISH	2	6	FISH	POLE	1	3	[0, 0, 0]	n/a	0	1	0	n/a	n/a	0.0	0	0	0	PAL2	0	R1112M
435.364	0.25	1170231	STUDY_ORIENT	n/a	n/a	SALT	COUCH	3	5	COUCH	n/a	0	3	[0, 0, 0]	n/a	0	1	0	n/a	n/a	0.0	0	0	0	PAL2	0	R1112M
436.247	4.0	1170673	STUDY_PAIR	n/a	wordpools/wordpool_EN.txt	SALT	COUCH	3	5	COUCH	n/a	0	3	[0, 0, 0]	n/a	0	1	0	n/a	n/a	0.0	0	0	0	PAL2	0	R1112M
441.265	0.25	1173181	STUDY_ORIENT	n/a	n/a	CUP	POOL	4	2	POOL	n/a	0	3	[0, 0, 0]	n/a	0	1	0	n/a	n/a	0.0	0	0	0	PAL2	0	R1112M
442.265	4.0	1173681	STUDY_PAIR	n/a	wordpools/wordpool_EN.txt	CUP	POOL	4	2	POOL	n/a	0	3	[0, 0, 0]	n/a	0	1	0	n/a	n/a	0.0	0	0	0	PAL2	0	R1112M
447.283	0.25	1176190	STUDY_ORIENT	n/a	n/a	SMILE	ARK	5	1	ARK	n/a	0	3	[0, 0, 0]	n/a	0	1	0	n/a	n/a	0.0	0	0	0	PAL2	0	R1112M
448.216	4.0	1176657	STUDY_PAIR	n/a	wordpools/wordpool_EN.txt	SMILE	ARK	5	1	ARK	n/a	0	3	[0, 0, 0]	n/a	0	1	0	n/a	n/a	0.0	0	0	0	PAL2	0	R1112M
453.234	0.25	1179166	STUDY_ORIENT	n/a	n/a	CLOUD	BIRD	6	4	CLOUD	n/a	0	3	[0, 0, 0]	n/a	0	1	0	n/a	n/a	0.0	0	0	0	PAL2	0	R1112M
454.251	4.0	1179674	STUDY_PAIR	n/a	wordpools/wordpool_EN.txt	CLOUD	BIRD	6	4	CLOUD	n/a	0	3	[0, 0, 0]	n/a	0	1	0	n/a	n/a	0.0	0	0	0	PAL2	0	R1112M
458.269	1.0	1181683	START	n/a	n/a	n/a	n/a	-999	-999	n/a	n/a	-999	3	[-999, -999, -999]	n/a	0	1	0	n/a	n/a	0.0	0	0	0	PAL2	0	R1112M
459.269	0.016	1182183	MATH_START	n/a	n/a	n/a	n/a	-999	-999	n/a	n/a	-999	3	[0, 0, 0]	n/a	0	1	0	n/a	n/a	0.0	0	0	0	PAL2	0	R1112M
459.285	12.787	1182191	PROB	12.755	n/a	n/a	n/a	-999	-999	n/a	n/a	-999	3	[7, 5, 8]	20	0	1	0	n/a	n/a	0.0	0	0	0	PAL2	0	R1112M
472.072	16.639	1188584	PROB	16.639	n/a	n/a	n/a	-999	-999	n/a	n/a	-999	3	[9, 9, 4]	22	0	1	0	n/a	n/a	0.0	0	0	0	PAL2	0	R1112M
488.711	0.014	1196903	STOP	n/a	n/a	n/a	n/a	-999	-999	n/a	n/a	-999	3	[-999, -999, -999]	n/a	0	1	0	n/a	n/a	0.0	0	0	0	PAL2	0	R1112M
488.725	0.0	1196910	TEST_START	n/a	n/a	n/a	n/a	-999	-999	n/a	n/a	-999	3	[0, 0, 0]	n/a	0	1	0	n/a	n/a	0.0	0	0	0	PAL2	0	R1112M
488.725	0.016	1196910	MATH_END	n/a	n/a	n/a	n/a	-999	-999	n/a	n/a	-999	3	[0, 0, 0]	n/a	0	1	0	n/a	n/a	0.0	0	0	0	PAL2	0	R1112M
488.741	0.25	1196918	TEST_ORIENT	n/a	n/a	SMILE	ARK	5	1	ARK	n/a	0	3	[0, 0, 0]	n/a	0	1	0	n/a	n/a	0.0	0	0	0	PAL2	0	R1112M
489.415	4.6	1197255	STIM_ON	n/a	n/a	SMILE	ARK	5	1	ARK	n/a	0	3	[0, 0, 0]	n/a	1	1	4600	RAD1	RAD2	500.0	50	230	300	PAL2	0	R1112M
489.625	4.0	1197360	TEST_PROBE	n/a	wordpools/wordpool_EN.txt	SMILE	ARK	5	1	ARK	n/a	0	3	[0, 0, 0]	n/a	1	1	4600	RAD1	RAD2	500.0	50	230	300	PAL2	0	R1112M
489.625	5.015	1197360	REC_START	n/a	n/a	n/a	n/a	5	-999	n/a	n/a	0	3	[0, 0, 0]	n/a	1	1	4600	RAD1	RAD2	500.0	50	230	300	PAL2	0	R1112M
494.64	0.002	1199867	REC_EVENT	5.015	n/a	SMILE	ARK	5	1	ARK	<>	0	3	[0, 0, 0]	n/a	0	1	0	n/a	n/a	0.0	0	0	0	PAL2	0	R1112M
494.642	0.017	1199868	REC_END	n/a	n/a	n/a	n/a	5	-999	n/a	n/a	-999	3	[0, 0, 0]	n/a	0	1	0	n/a	n/a	0.0	0	0	0	PAL2	0	R1112M
494.659	0.25	1199877	TEST_ORIENT	n/a	n/a	CUP	POOL	4	2	POOL	n/a	0	3	[0, 0, 0]	n/a	0	1	0	n/a	n/a	0.0	0	0	0	PAL2	0	R1112M
495.526	4.0	1200310	TEST_PROBE	n/a	wordpools/wordpool_EN.txt	CUP	POOL	4	2	POOL	n/a	0	3	[0, 0, 0]	n/a	0	1	0	n/a	n/a	0.0	0	0	0	PAL2	0	R1112M
495.526	5.015	1200310	REC_START	n/a	n/a	n/a	n/a	4	-999	n/a	n/a	0	3	[0, 0, 0]	n/a	0	1	0	n/a	n/a	0.0	0	0	0	PAL2	0	R1112M
500.541	0.002	1202818	REC_EVENT	5.015	n/a	CUP	POOL	4	2	POOL	<>	0	3	[0, 0, 0]	n/a	0	1	0	n/a	n/a	0.0	0	0	0	PAL2	0	R1112M
500.543	0.017	1202819	REC_END	n/a	n/a	n/a	n/a	4	-999	n/a	n/a	-999	3	[0, 0, 0]	n/a	0	1	0	n/a	n/a	0.0	0	0	0	PAL2	0	R1112M
500.56	0.25	1202827	TEST_ORIENT	n/a	n/a	SEED	BOOK	1	3	SEED	n/a	0	3	[0, 0, 0]	n/a	0	1	0	n/a	n/a	0.0	0	0	0	PAL2	0	R1112M
501.178	4.6	1203136	STIM_ON	n/a	n/a	SEED	BOOK	1	3	SEED	n/a	0	3	[0, 0, 0]	n/a	1	1	4600	RAD1	RAD2	500.0	50	230	300	PAL2	0	R1112M
501.394	4.0	1203244	TEST_PROBE	n/a	wordpools/wordpool_EN.txt	SEED	BOOK	1	3	SEED	n/a	0	3	[0, 0, 0]	n/a	1	1	4600	RAD1	RAD2	500.0	50	230	300	PAL2	0	R1112M
501.394	5.015	1203244	REC_START	n/a	n/a	n/a	n/a	1	-999	n/a	n/a	0	3	[0, 0, 0]	n/a	1	1	4600	RAD1	RAD2	500.0	50	230	300	PAL2	0	R1112M
506.409	0.002	1205752	REC_EVENT	5.015	n/a	SEED	BOOK	1	3	SEED	<>	0	3	[0, 0, 0]	n/a	0	1	0	n/a	n/a	0.0	0	0	0	PAL2	0	R1112M
506.411	0.017	1205753	REC_END	n/a	n/a	n/a	n/a	1	-999	n/a	n/a	-999	3	[0, 0, 0]	n/a	0	1	0	n/a	n/a	0.0	0	0	0	PAL2	0	R1112M
506.428	0.25	1205761	TEST_ORIENT	n/a	n/a	CLOUD	BIRD	6	4	CLOUD	n/a	0	3	[0, 0, 0]	n/a	0	1	0	n/a	n/a	0.0	0	0	0	PAL2	0	R1112M
507.395	4.0	1206245	TEST_PROBE	n/a	wordpools/wordpool_EN.txt	CLOUD	BIRD	6	4	CLOUD	n/a	0	3	[0, 0, 0]	n/a	0	1	0	n/a	n/a	0.0	0	0	0	PAL2	0	R1112M
507.395	5.015	1206245	REC_START	n/a	n/a	n/a	n/a	6	-999	n/a	n/a	0	3	[0, 0, 0]	n/a	0	1	0	n/a	n/a	0.0	0	0	0	PAL2	0	R1112M
512.41	0.002	1208752	REC_EVENT	5.015	n/a	CLOUD	BIRD	6	4	CLOUD	<>	0	3	[0, 0, 0]	n/a	0	1	0	n/a	n/a	0.0	0	0	0	PAL2	0	R1112M
512.412	0.017	1208753	REC_END	n/a	n/a	n/a	n/a	6	-999	n/a	n/a	-999	3	[0, 0, 0]	n/a	0	1	0	n/a	n/a	0.0	0	0	0	PAL2	0	R1112M
512.429	0.25	1208761	TEST_ORIENT	n/a	n/a	SALT	COUCH	3	5	COUCH	n/a	0	3	[0, 0, 0]	n/a	0	1	0	n/a	n/a	0.0	0	0	0	PAL2	0	R1112M
513.129	4.6	1209111	STIM_ON	n/a	n/a	SALT	COUCH	3	5	COUCH	n/a	0	3	[0, 0, 0]	n/a	1	1	4600	RAD1	RAD2	500.0	50	230	300	PAL2	0	R1112M
513.346	4.0	1209220	TEST_PROBE	n/a	wordpools/wordpool_EN.txt	SALT	COUCH	3	5	COUCH	n/a	0	3	[0, 0, 0]	n/a	1	1	4600	RAD1	RAD2	500.0	50	230	300	PAL2	0	R1112M
513.347	5.025	1209220	REC_START	n/a	n/a	n/a	n/a	3	-999	n/a	n/a	0	3	[0, 0, 0]	n/a	1	1	4600	RAD1	RAD2	500.0	50	230	300	PAL2	0	R1112M
518.372	0.002	1211733	REC_END	n/a	n/a	n/a	n/a	3	-999	n/a	n/a	-999	3	[0, 0, 0]	n/a	0	1	0	n/a	n/a	0.0	0	0	0	PAL2	0	R1112M
518.374	0.006	1211734	REC_EVENT	5.027	n/a	SALT	COUCH	3	5	COUCH	<>	0	3	[0, 0, 0]	n/a	0	1	0	n/a	n/a	0.0	0	0	0	PAL2	0	R1112M
518.38	0.25	1211737	TEST_ORIENT	n/a	n/a	POLE	FISH	2	6	FISH	POLE	1	3	[0, 0, 0]	n/a	0	1	0	n/a	n/a	0.0	0	0	0	PAL2	0	R1112M
519.414	4.0	1212254	TEST_PROBE	n/a	wordpools/wordpool_EN.txt	POLE	FISH	2	6	FISH	POLE	1	3	[0, 0, 0]	n/a	0	1	0	n/a	n/a	0.0	0	0	0	PAL2	0	R1112M
519.414	2.384	1212254	REC_START	n/a	n/a	n/a	n/a	2	-999	n/a	POLE	1	3	[0, 0, 0]	n/a	0	1	0	n/a	n/a	0.0	0	0	0	PAL2	0	R1112M
521.798	2.633	1213446	REC_EVENT	2.384	n/a	POLE	FISH	2	6	FISH	POLE	1	3	[0, 0, 0]	n/a	0	1	0	n/a	n/a	0.0	0	0	0	PAL2	0	R1112M
524.431	2.441	1214762	REC_END	n/a	n/a	n/a	n/a	2	-999	n/a	n/a	-999	3	[0, 0, 0]	n/a	0	1	0	n/a	n/a	0.0	0	0	0	PAL2	0	R1112M
526.872	10.446	1215983	ENCODING_START	n/a	n/a	n/a	n/a	0	-999	n/a	n/a	-999	4	[0, 0, 0]	n/a	0	1	0	n/a	n/a	0.0	0	0	0	PAL2	0	R1112M
537.318	0.25	1221205	STUDY_ORIENT	n/a	n/a	SLUSH	BARN	1	5	BARN	n/a	0	4	[0, 0, 0]	n/a	0	1	0	n/a	n/a	0.0	0	0	0	PAL2	0	R1112M
538.301	4.0	1221697	STUDY_PAIR	n/a	wordpools/wordpool_EN.txt	SLUSH	BARN	1	5	BARN	n/a	0	4	[0, 0, 0]	n/a	0	1	0	n/a	n/a	0.0	0	0	0	PAL2	0	R1112M
543.319	0.25	1224206	STUDY_ORIENT	n/a	n/a	HOLE	FORK	2	6	HOLE	n/a	0	4	[0, 0, 0]	n/a	0	1	0	n/a	n/a	0.0	0	0	0	PAL2	0	R1112M
544.085	4.6	1224589	STIM_ON	n/a	n/a	HOLE	FORK	2	6	HOLE	n/a	0	4	[0, 0, 0]	n/a	1	1	4600	RAD1	RAD2	500.0	50	230	300	PAL2	0	R1112M
544.302	4.0	1224697	STUDY_PAIR	n/a	wordpools/wordpool_EN.txt	HOLE	FORK	2	6	HOLE	n/a	0	4	[0, 0, 0]	n/a	1	1	4600	RAD1	RAD2	500.0	50	230	300	PAL2	0	R1112M
549.32	0.25	1227206	STUDY_ORIENT	n/a	n/a	DOCK	CAT	3	3	CAT	n/a	0	4	[0, 0, 0]	n/a	0	1	0	n/a	n/a	0.0	0	0	0	PAL2	0	R1112M
550.287	4.0	1227689	STUDY_PAIR	n/a	wordpools/wordpool_EN.txt	DOCK	CAT	3	3	CAT	n/a	0	4	[0, 0, 0]	n/a	0	1	0	n/a	n/a	0.0	0	0	0	PAL2	0	R1112M
555.321	0.25	1230206	STUDY_ORIENT	n/a	n/a	HILL	SWAMP	4	4	SWAMP	n/a	0	4	[0, 0, 0]	n/a	0	1	0	n/a	n/a	0.0	0	0	0	PAL2	0	R1112M
555.911	4.6	1230501	STIM_ON	n/a	n/a	HILL	SWAMP	4	4	SWAMP	n/a	0	4	[0, 0, 0]	n/a	1	1	4600	RAD1	RAD2	500.0	50	230	300	PAL2	0	R1112M
556.122	4.0	1230607	STUDY_PAIR	n/a	wordpools/wordpool_EN.txt	HILL	SWAMP	4	4	SWAMP	n/a	0	4	[0, 0, 0]	n/a	1	1	4600	RAD1	RAD2	500.0	50	230	300	PAL2	0	R1112M
561.139	0.25	1233115	STUDY_ORIENT	n/a	n/a	HOOK	SEA	5	1	SEA	n/a	0	4	[0, 0, 0]	n/a	0	1	0	n/a	n/a	0.0	0	0	0	PAL2	0	R1112M
562.123	4.0	1233607	STUDY_PAIR	n/a	wordpools/wordpool_EN.txt	HOOK	SEA	5	1	SEA	n/a	0	4	[0, 0, 0]	n/a	0	1	0	n/a	n/a	0.0	0	0	0	PAL2	0	R1112M
567.14	0.25	1236115	STUDY_ORIENT	n/a	n/a	PEACH	FOG	6	2	FOG	n/a	0	4	[0, 0, 0]	n/a	0	1	0	n/a	n/a	0.0	0	0	0	PAL2	0	R1112M
567.758	4.6	1236424	STIM_ON	n/a	n/a	PEACH	FOG	6	2	FOG	n/a	0	4	[0, 0, 0]	n/a	1	1	4600	RAD1	RAD2	500.0	50	230	300	PAL2	0	R1112M
567.975	4.0	1236533	STUDY_PAIR	n/a	wordpools/wordpool_EN.txt	PEACH	FOG	6	2	FOG	n/a	0	4	[0, 0, 0]	n/a	1	1	4600	RAD1	RAD2	500.0	50	230	300	PAL2	0	R1112M
571.993	0.999	1238542	START	n/a	n/a	n/a	n/a	-999	-999	n/a	n/a	-999	4	[-999, -999, -999]	n/a	0	1	0	n/a	n/a	0.0	0	0	0	PAL2	0	R1112M
572.992	0.017	1239041	MATH_START	n/a	n/a	n/a	n/a	-999	-999	n/a	n/a	-999	4	[0, 0, 0]	n/a	0	1	0	n/a	n/a	0.0	0	0	0	PAL2	0	R1112M
573.009	5.6	1239050	PROB	5.566	n/a	n/a	n/a	-999	-999	n/a	n/a	-999	4	[2, 2, 1]	5	0	1	0	n/a	n/a	0.0	0	0	0	PAL2	0	R1112M
578.609	7.419	1241850	PROB	7.399	n/a	n/a	n/a	-999	-999	n/a	n/a	-999	4	[2, 7, 1]	10	0	1	0	n/a	n/a	0.0	0	0	0	PAL2	0	R1112M
586.028	8.619	1245559	PROB	8.619	n/a	n/a	n/a	-999	-999	n/a	n/a	-999	4	[7, 8, 1]	16	0	1	0	n/a	n/a	0.0	0	0	0	PAL2	0	R1112M
594.647	0.015	1249868	STOP	n/a	n/a	n/a	n/a	-999	-999	n/a	n/a	-999	4	[-999, -999, -999]	n/a	0	1	0	n/a	n/a	0.0	0	0	0	PAL2	0	R1112M
594.662	0.0	1249876	MATH_END	n/a	n/a	n/a	n/a	-999	-999	n/a	n/a	-999	4	[0, 0, 0]	n/a	0	1	0	n/a	n/a	0.0	0	0	0	PAL2	0	R1112M
594.662	0.017	1249876	TEST_START	n/a	n/a	n/a	n/a	-999	-999	n/a	n/a	-999	4	[0, 0, 0]	n/a	0	1	0	n/a	n/a	0.0	0	0	0	PAL2	0	R1112M
594.679	0.25	1249884	TEST_ORIENT	n/a	n/a	HOOK	SEA	5	1	SEA	n/a	0	4	[0, 0, 0]	n/a	0	1	0	n/a	n/a	0.0	0	0	0	PAL2	0	R1112M
595.579	4.0	1250334	TEST_PROBE	n/a	wordpools/wordpool_EN.txt	HOOK	SEA	5	1	SEA	n/a	0	4	[0, 0, 0]	n/a	0	1	0	n/a	n/a	0.0	0	0	0	PAL2	0	R1112M
595.58	5.009	1250335	REC_START	n/a	n/a	n/a	n/a	5	-999	n/a	n/a	0	4	[0, 0, 0]	n/a	0	1	0	n/a	n/a	0.0	0	0	0	PAL2	0	R1112M
600.589	0.002	1252839	REC_EVENT	5.009	n/a	HOOK	SEA	5	1	SEA	<>	0	4	[0, 0, 0]	n/a	0	1	0	n/a	n/a	0.0	0	0	0	PAL2	0	R1112M
600.591	0.022	1252840	REC_END	n/a	n/a	n/a	n/a	5	-999	n/a	n/a	-999	4	[0, 0, 0]	n/a	0	1	0	n/a	n/a	0.0	0	0	0	PAL2	0	R1112M
600.613	0.25	1252851	TEST_ORIENT	n/a	n/a	PEACH	FOG	6	2	FOG	n/a	0	4	[0, 0, 0]	n/a	0	1	0	n/a	n/a	0.0	0	0	0	PAL2	0	R1112M
601.48	4.0	1253284	TEST_PROBE	n/a	wordpools/wordpool_EN.txt	PEACH	FOG	6	2	FOG	n/a	0	4	[0, 0, 0]	n/a	0	1	0	n/a	n/a	0.0	0	0	0	PAL2	0	R1112M
601.481	5.008	1253285	REC_START	n/a	n/a	n/a	n/a	6	-999	n/a	n/a	0	4	[0, 0, 0]	n/a	0	1	0	n/a	n/a	0.0	0	0	0	PAL2	0	R1112M
606.489	0.001	1255789	REC_END	n/a	n/a	n/a	n/a	6	-999	n/a	n/a	-999	4	[0, 0, 0]	n/a	0	1	0	n/a	n/a	0.0	0	0	0	PAL2	0	R1112M
606.49	0.008	1255789	REC_EVENT	5.009	n/a	PEACH	FOG	6	2	FOG	<>	0	4	[0, 0, 0]	n/a	0	1	0	n/a	n/a	0.0	0	0	0	PAL2	0	R1112M
606.498	0.25	1255793	TEST_ORIENT	n/a	n/a	DOCK	CAT	3	3	CAT	n/a	0	4	[0, 0, 0]	n/a	0	1	0	n/a	n/a	0.0	0	0	0	PAL2	0	R1112M
607.465	4.0	1256277	TEST_PROBE	n/a	wordpools/wordpool_EN.txt	DOCK	CAT	3	3	CAT	n/a	0	4	[0, 0, 0]	n/a	0	1	0	n/a	n/a	0.0	0	0	0	PAL2	0	R1112M
607.465	5.015	1256277	REC_START	n/a	n/a	n/a	n/a	3	-999	n/a	n/a	0	4	[0, 0, 0]	n/a	0	1	0	n/a	n/a	0.0	0	0	0	PAL2	0	R1112M
612.48	0.002	1258784	REC_EVENT	5.015	n/a	DOCK	CAT	3	3	CAT	<>	0	4	[0, 0, 0]	n/a	0	1	0	n/a	n/a	0.0	0	0	0	PAL2	0	R1112M
612.482	0.017	1258785	REC_END	n/a	n/a	n/a	n/a	3	-999	n/a	n/a	-999	4	[0, 0, 0]	n/a	0	1	0	n/a	n/a	0.0	0	0	0	PAL2	0	R1112M
612.499	0.25	1258794	TEST_ORIENT	n/a	n/a	HILL	SWAMP	4	4	SWAMP	n/a	0	4	[0, 0, 0]	n/a	0	1	0	n/a	n/a	0.0	0	0	0	PAL2	0	R1112M
613.349	4.0	1259219	TEST_PROBE	n/a	wordpools/wordpool_EN.txt	HILL	SWAMP	4	4	SWAMP	n/a	0	4	[0, 0, 0]	n/a	0	1	0	n/a	n/a	0.0	0	0	0	PAL2	0	R1112M
613.35	5.008	1259219	REC_START	n/a	n/a	n/a	n/a	4	-999	n/a	n/a	0	4	[0, 0, 0]	n/a	0	1	0	n/a	n/a	0.0	0	0	0	PAL2	0	R1112M
618.358	0.001	1261723	REC_END	n/a	n/a	n/a	n/a	4	-999	n/a	n/a	-999	4	[0, 0, 0]	n/a	0	1	0	n/a	n/a	0.0	0	0	0	PAL2	0	R1112M
618.359	0.008	1261724	REC_EVENT	5.009	n/a	HILL	SWAMP	4	4	SWAMP	<>	0	4	[0, 0, 0]	n/a	0	1	0	n/a	n/a	0.0	0	0	0	PAL2	0	R1112M
618.367	0.25	1261728	TEST_ORIENT	n/a	n/a	SLUSH	BARN	1	5	BARN	n/a	0	4	[0, 0, 0]	n/a	0	1	0	n/a	n/a	0.0	0	0	0	PAL2	0	R1112M
619.217	4.0	1262152	TEST_PROBE	n/a	wordpools/wordpool_EN.txt	SLUSH	BARN	1	5	BARN	n/a	0	4	[0, 0, 0]	n/a	0	1	0	n/a	n/a	0.0	0	0	0	PAL2	0	R1112M
619.218	4.998	1262153	REC_START	n/a	n/a	n/a	n/a	1	-999	n/a	n/a	0	4	[0, 0, 0]	n/a	0	1	0	n/a	n/a	0.0	0	0	0	PAL2	0	R1112M
624.216	0.002	1264652	REC_EVENT	4.998	n/a	SLUSH	BARN	1	5	BARN	<>	0	4	[0, 0, 0]	n/a	0	1	0	n/a	n/a	0.0	0	0	0	PAL2	0	R1112M
624.218	0.017	1264653	REC_END	n/a	n/a	n/a	n/a	1	-999	n/a	n/a	-999	4	[0, 0, 0]	n/a	0	1	0	n/a	n/a	0.0	0	0	0	PAL2	0	R1112M
624.235	0.25	1264661	TEST_ORIENT	n/a	n/a	HOLE	FORK	2	6	HOLE	n/a	0	4	[0, 0, 0]	n/a	0	1	0	n/a	n/a	0.0	0	0	0	PAL2	0	R1112M
625.202	4.0	1265145	TEST_PROBE	n/a	wordpools/wordpool_EN.txt	HOLE	FORK	2	6	HOLE	n/a	0	4	[0, 0, 0]	n/a	0	1	0	n/a	n/a	0.0	0	0	0	PAL2	0	R1112M
625.202	5.015	1265145	REC_START	n/a	n/a	n/a	n/a	2	-999	n/a	n/a	0	4	[0, 0, 0]	n/a	0	1	0	n/a	n/a	0.0	0	0	0	PAL2	0	R1112M
630.217	0.002	1267652	REC_EVENT	5.015	n/a	HOLE	FORK	2	6	HOLE	<>	0	4	[0, 0, 0]	n/a	0	1	0	n/a	n/a	0.0	0	0	0	PAL2	0	R1112M
630.219	3.108	1267653	REC_END	n/a	n/a	n/a	n/a	2	-999	n/a	n/a	-999	4	[0, 0, 0]	n/a	0	1	0	n/a	n/a	0.0	0	0	0	PAL2	0	R1112M
633.327	10.446	1269207	ENCODING_START	n/a	n/a	n/a	n/a	0	-999	n/a	n/a	-999	5	[0, 0, 0]	n/a	0	1	0	n/a	n/a	0.0	0	0	0	PAL2	0	R1112M
643.773	0.25	1274430	STUDY_ORIENT	n/a	n/a	MAIL	HORN	1	5	MAIL	n/a	0	5	[0, 0, 0]	n/a	0	1	0	n/a	n/a	0.0	0	0	0	PAL2	0	R1112M
644.622	4.0	1274854	STUDY_PAIR	n/a	wordpools/wordpool_EN.txt	MAIL	HORN	1	5	MAIL	n/a	0	5	[0, 0, 0]	n/a	0	1	0	n/a	n/a	0.0	0	0	0	PAL2	0	R1112M
649.64	0.25	1277363	STUDY_ORIENT	n/a	n/a	FRUIT	ANT	2	4	FRUIT	n/a	0	5	[0, 0, 0]	n/a	0	1	0	n/a	n/a	0.0	0	0	0	PAL2	0	R1112M
650.54	4.0	1277813	STUDY_PAIR	n/a	wordpools/wordpool_EN.txt	FRUIT	ANT	2	4	FRUIT	n/a	0	5	[0, 0, 0]	n/a	0	1	0	n/a	n/a	0.0	0	0	0	PAL2	0	R1112M
655.558	0.25	1280322	STUDY_ORIENT	n/a	n/a	SPEAR	WOOD	3	3	SPEAR	n/a	0	5	[0, 0, 0]	n/a	0	1	0	n/a	n/a	0.0	0	0	0	PAL2	0	R1112M
656.558	4.0	1280822	STUDY_PAIR	n/a	wordpools/wordpool_EN.txt	SPEAR	WOOD	3	3	SPEAR	n/a	0	5	[0, 0, 0]	n/a	0	1	0	n/a	n/a	0.0	0	0	0	PAL2	0	R1112M
661.592	0.25	1283339	STUDY_ORIENT	n/a	n/a	PLANE	PEARL	4	6	PEARL	n/a	0	5	[0, 0, 0]	n/a	0	1	0	n/a	n/a	0.0	0	0	0	PAL2	0	R1112M
662.476	4.0	1283781	STUDY_PAIR	n/a	wordpools/wordpool_EN.txt	PLANE	PEARL	4	6	PEARL	n/a	0	5	[0, 0, 0]	n/a	0	1	0	n/a	n/a	0.0	0	0	0	PAL2	0	R1112M
667.51	0.25	1286298	STUDY_ORIENT	n/a	n/a	NEST	SWORD	5	1	SWORD	n/a	0	5	[0, 0, 0]	n/a	0	1	0	n/a	n/a	0.0	0	0	0	PAL2	0	R1112M
668.277	4.0	1286681	STUDY_PAIR	n/a	wordpools/wordpool_EN.txt	NEST	SWORD	5	1	SWORD	n/a	0	5	[0, 0, 0]	n/a	0	1	0	n/a	n/a	0.0	0	0	0	PAL2	0	R1112M
673.311	0.25	1289198	STUDY_ORIENT	n/a	n/a	GEESE	FUDGE	6	2	FUDGE	n/a	0	5	[0, 0, 0]	n/a	0	1	0	n/a	n/a	0.0	0	0	0	PAL2	0	R1112M
674.328	4.0	1289706	STUDY_PAIR	n/a	wordpools/wordpool_EN.txt	GEESE	FUDGE	6	2	FUDGE	n/a	0	5	[0, 0, 0]	n/a	0	1	0	n/a	n/a	0.0	0	0	0	PAL2	0	R1112M
678.329	1.0	1291707	START	n/a	n/a	n/a	n/a	-999	-999	n/a	n/a	-999	5	[-999, -999, -999]	n/a	0	1	0	n/a	n/a	0.0	0	0	0	PAL2	0	R1112M
679.329	0.017	1292207	MATH_START	n/a	n/a	n/a	n/a	-999	-999	n/a	n/a	-999	5	[0, 0, 0]	n/a	0	1	0	n/a	n/a	0.0	0	0	0	PAL2	0	R1112M
679.346	20.253	1292215	PROB	20.253	n/a	n/a	n/a	-999	-999	n/a	n/a	-999	5	[4, 3, 4]	11	0	1	0	n/a	n/a	0.0	0	0	0	PAL2	0	R1112M
699.599	0.017	1302341	STOP	n/a	n/a	n/a	n/a	-999	-999	n/a	n/a	-999	5	[-999, -999, -999]	n/a	0	1	0	n/a	n/a	0.0	0	0	0	PAL2	0	R1112M
699.616	0.0	1302350	MATH_END	n/a	n/a	n/a	n/a	-999	-999	n/a	n/a	-999	5	[0, 0, 0]	n/a	0	1	0	n/a	n/a	0.0	0	0	0	PAL2	0	R1112M
699.616	0.017	1302350	TEST_START	n/a	n/a	n/a	n/a	-999	-999	n/a	n/a	-999	5	[0, 0, 0]	n/a	0	1	0	n/a	n/a	0.0	0	0	0	PAL2	0	R1112M
699.633	0.25	1302358	TEST_ORIENT	n/a	n/a	NEST	SWORD	5	1	SWORD	n/a	0	5	[0, 0, 0]	n/a	0	1	0	n/a	n/a	0.0	0	0	0	PAL2	0	R1112M
700.633	4.0	1302858	TEST_PROBE	n/a	wordpools/wordpool_EN.txt	NEST	SWORD	5	1	SWORD	n/a	0	5	[0, 0, 0]	n/a	0	1	0	n/a	n/a	0.0	0	0	0	PAL2	0	R1112M
700.634	5.008	1302859	REC_START	n/a	n/a	n/a	n/a	5	-999	n/a	n/a	0	5	[0, 0, 0]	n/a	0	1	0	n/a	n/a	0.0	0	0	0	PAL2	0	R1112M
705.642	0.001	1305363	REC_END	n/a	n/a	n/a	n/a	5	-999	n/a	n/a	-999	5	[0, 0, 0]	n/a	0	1	0	n/a	n/a	0.0	0	0	0	PAL2	0	R1112M
705.643	0.008	1305363	REC_EVENT	5.009	n/a	NEST	SWORD	5	1	SWORD	<>	0	5	[0, 0, 0]	n/a	0	1	0	n/a	n/a	0.0	0	0	0	PAL2	0	R1112M
705.651	0.25	1305367	TEST_ORIENT	n/a	n/a	GEESE	FUDGE	6	2	FUDGE	n/a	0	5	[0, 0, 0]	n/a	0	1	0	n/a	n/a	0.0	0	0	0	PAL2	0	R1112M
706.355	4.6	1305719	STIM_ON	n/a	n/a	GEESE	FUDGE	6	2	FUDGE	n/a	0	5	[0, 0, 0]	n/a	1	1	4600	RAD1	RAD2	500.0	50	230	300	PAL2	0	R1112M
706.568	4.0	1305826	TEST_PROBE	n/a	wordpools/wordpool_EN.txt	GEESE	FUDGE	6	2	FUDGE	n/a	0	5	[0, 0, 0]	n/a	1	1	4600	RAD1	RAD2	500.0	50	230	300	PAL2	0	R1112M
706.568	5.015	1305826	REC_START	n/a	n/a	n/a	n/a	6	-999	n/a	n/a	0	5	[0, 0, 0]	n/a	1	1	4600	RAD1	RAD2	500.0	50	230	300	PAL2	0	R1112M
711.583	0.002	1308333	REC_EVENT	5.015	n/a	GEESE	FUDGE	6	2	FUDGE	<>	0	5	[0, 0, 0]	n/a	0	1	0	n/a	n/a	0.0	0	0	0	PAL2	0	R1112M
711.585	0.017	1308334	REC_END	n/a	n/a	n/a	n/a	6	-999	n/a	n/a	-999	5	[0, 0, 0]	n/a	0	1	0	n/a	n/a	0.0	0	0	0	PAL2	0	R1112M
711.602	0.25	1308342	TEST_ORIENT	n/a	n/a	SPEAR	WOOD	3	3	SPEAR	n/a	0	5	[0, 0, 0]	n/a	0	1	0	n/a	n/a	0.0	0	0	0	PAL2	0	R1112M
712.502	4.0	1308792	TEST_PROBE	n/a	wordpools/wordpool_EN.txt	SPEAR	WOOD	3	3	SPEAR	n/a	0	5	[0, 0, 0]	n/a	0	1	0	n/a	n/a	0.0	0	0	0	PAL2	0	R1112M
712.503	5.003	1308793	REC_START	n/a	n/a	n/a	n/a	3	-999	n/a	n/a	0	5	[0, 0, 0]	n/a	0	1	0	n/a	n/a	0.0	0	0	0	PAL2	0	R1112M
717.506	0.005	1311294	REC_EVENT	5.003	n/a	SPEAR	WOOD	3	3	SPEAR	<>	0	5	[0, 0, 0]	n/a	0	1	0	n/a	n/a	0.0	0	0	0	PAL2	0	R1112M
717.511	0.009	1311297	REC_END	n/a	n/a	n/a	n/a	3	-999	n/a	n/a	-999	5	[0, 0, 0]	n/a	0	1	0	n/a	n/a	0.0	0	0	0	PAL2	0	R1112M
717.52	0.25	1311301	TEST_ORIENT	n/a	n/a	FRUIT	ANT	2	4	FRUIT	n/a	0	5	[0, 0, 0]	n/a	0	1	0	n/a	n/a	0.0	0	0	0	PAL2	0	R1112M
718.272	4.6	1311677	STIM_ON	n/a	n/a	FRUIT	ANT	2	4	FRUIT	n/a	0	5	[0, 0, 0]	n/a	1	1	4600	RAD1	RAD2	500.0	50	230	300	PAL2	0	R1112M
718.487	4.0	1311785	TEST_PROBE	n/a	wordpools/wordpool_EN.txt	FRUIT	ANT	2	4	FRUIT	n/a	0	5	[0, 0, 0]	n/a	1	1	4600	RAD1	RAD2	500.0	50	230	300	PAL2	0	R1112M
718.487	5.015	1311785	REC_START	n/a	n/a	n/a	n/a	2	-999	n/a	n/a	0	5	[0, 0, 0]	n/a	1	1	4600	RAD1	RAD2	500.0	50	230	300	PAL2	0	R1112M
723.502	0.002	1314292	REC_EVENT	5.015	n/a	FRUIT	ANT	2	4	FRUIT	<>	0	5	[0, 0, 0]	n/a	0	1	0	n/a	n/a	0.0	0	0	0	PAL2	0	R1112M
723.504	0.017	1314293	REC_END	n/a	n/a	n/a	n/a	2	-999	n/a	n/a	-999	5	[0, 0, 0]	n/a	0	1	0	n/a	n/a	0.0	0	0	0	PAL2	0	R1112M
723.521	0.25	1314302	TEST_ORIENT	n/a	n/a	MAIL	HORN	1	5	MAIL	n/a	0	5	[0, 0, 0]	n/a	0	1	0	n/a	n/a	0.0	0	0	0	PAL2	0	R1112M
724.338	4.0	1314710	TEST_PROBE	n/a	wordpools/wordpool_EN.txt	MAIL	HORN	1	5	MAIL	n/a	0	5	[0, 0, 0]	n/a	0	1	0	n/a	n/a	0.0	0	0	0	PAL2	0	R1112M
724.339	5.003	1314711	REC_START	n/a	n/a	n/a	n/a	1	-999	n/a	n/a	0	5	[0, 0, 0]	n/a	0	1	0	n/a	n/a	0.0	0	0	0	PAL2	0	R1112M
729.342	0.005	1317212	REC_EVENT	5.003	n/a	MAIL	HORN	1	5	MAIL	<>	0	5	[0, 0, 0]	n/a	0	1	0	n/a	n/a	0.0	0	0	0	PAL2	0	R1112M
729.347	0.008	1317214	REC_END	n/a	n/a	n/a	n/a	1	-999	n/a	n/a	-999	5	[0, 0, 0]	n/a	0	1	0	n/a	n/a	0.0	0	0	0	PAL2	0	R1112M
729.355	0.25	1317218	TEST_ORIENT	n/a	n/a	PLANE	PEARL	4	6	PEARL	n/a	0	5	[0, 0, 0]	n/a	0	1	0	n/a	n/a	0.0	0	0	0	PAL2	0	R1112M
730.028	4.6	1317555	STIM_ON	n/a	n/a	PLANE	PEARL	4	6	PEARL	n/a	0	5	[0, 0, 0]	n/a	1	1	4600	RAD1	RAD2	500.0	50	230	300	PAL2	0	R1112M
730.239	4.0	1317660	TEST_PROBE	n/a	wordpools/wordpool_EN.txt	PLANE	PEARL	4	6	PEARL	n/a	0	5	[0, 0, 0]	n/a	1	1	4600	RAD1	RAD2	500.0	50	230	300	PAL2	0	R1112M
730.24	5.008	1317661	REC_START	n/a	n/a	n/a	n/a	4	-999	n/a	n/a	0	5	[0, 0, 0]	n/a	1	1	4600	RAD1	RAD2	500.0	50	230	300	PAL2	0	R1112M
735.248	0.001	1320165	REC_END	n/a	n/a	n/a	n/a	4	-999	n/a	n/a	-999	5	[0, 0, 0]	n/a	0	1	0	n/a	n/a	0.0	0	0	0	PAL2	0	R1112M
735.249	48.511	1320165	REC_EVENT	5.009	n/a	PLANE	PEARL	4	6	PEARL	<>	0	5	[0, 0, 0]	n/a	0	1	0	n/a	n/a	0.0	0	0	0	PAL2	0	R1112M
783.76	10.442	1344419	ENCODING_START	n/a	n/a	n/a	n/a	0	-999	n/a	n/a	-999	6	[0, 0, 0]	n/a	0	1	0	n/a	n/a	0.0	0	0	0	PAL2	0	R1112M
794.202	0.25	1349640	STUDY_ORIENT	n/a	n/a	TIE	OAK	1	5	OAK	n/a	0	6	[0, 0, 0]	n/a	0	1	0	n/a	n/a	0.0	0	0	0	PAL2	0	R1112M
795.186	4.0	1350132	STUDY_PAIR	n/a	wordpools/wordpool_EN.txt	TIE	OAK	1	5	OAK	n/a	0	6	[0, 0, 0]	n/a	0	1	0	n/a	n/a	0.0	0	0	0	PAL2	0	R1112M
800.22	0.25	1352649	STUDY_ORIENT	n/a	n/a	TREE	BAG	2	4	BAG	TRASH	0	6	[0, 0, 0]	n/a	0	1	0	n/a	n/a	0.0	0	0	0	PAL2	0	R1112M
801.187	4.0	1353132	STUDY_PAIR	n/a	wordpools/wordpool_EN.txt	TREE	BAG	2	4	BAG	TRASH	0	6	[0, 0, 0]	n/a	0	1	0	n/a	n/a	0.0	0	0	0	PAL2	0	R1112M
806.221	0.25	1355649	STUDY_ORIENT	n/a	n/a	SNOW	APE	3	1	APE	n/a	0	6	[0, 0, 0]	n/a	0	1	0	n/a	n/a	0.0	0	0	0	PAL2	0	R1112M
807.006	4.0	1356042	STUDY_PAIR	n/a	wordpools/wordpool_EN.txt	SNOW	APE	3	1	APE	n/a	0	6	[0, 0, 0]	n/a	0	1	0	n/a	n/a	0.0	0	0	0	PAL2	0	R1112M
812.04	0.25	1358559	STUDY_ORIENT	n/a	n/a	GLOVE	BEAR	4	2	GLOVE	n/a	0	6	[0, 0, 0]	n/a	0	1	0	n/a	n/a	0.0	0	0	0	PAL2	0	R1112M
813.057	4.0	1359067	STUDY_PAIR	n/a	wordpools/wordpool_EN.txt	GLOVE	BEAR	4	2	GLOVE	n/a	0	6	[0, 0, 0]	n/a	0	1	0	n/a	n/a	0.0	0	0	0	PAL2	0	R1112M
818.091	0.25	1361584	STUDY_ORIENT	n/a	n/a	JUDGE	CAKE	5	3	CAKE	APE	0	6	[0, 0, 0]	n/a	0	1	0	n/a	n/a	0.0	0	0	0	PAL2	0	R1112M
818.941	4.0	1362009	STUDY_PAIR	n/a	wordpools/wordpool_EN.txt	JUDGE	CAKE	5	3	CAKE	APE	0	6	[0, 0, 0]	n/a	0	1	0	n/a	n/a	0.0	0	0	0	PAL2	0	R1112M
823.959	0.25	1364518	STUDY_ORIENT	n/a	n/a	CLAY	LAMP	6	6	CLAY	n/a	0	6	[0, 0, 0]	n/a	0	1	0	n/a	n/a	0.0	0	0	0	PAL2	0	R1112M
824.859	4.0	1364968	STUDY_PAIR	n/a	wordpools/wordpool_EN.txt	CLAY	LAMP	6	6	CLAY	n/a	0	6	[0, 0, 0]	n/a	0	1	0	n/a	n/a	0.0	0	0	0	PAL2	0	R1112M
828.86	1.0	1366968	START	n/a	n/a	n/a	n/a	-999	-999	n/a	n/a	-999	6	[-999, -999, -999]	n/a	0	1	0	n/a	n/a	0.0	0	0	0	PAL2	0	R1112M
829.86	0.017	1367468	MATH_START	n/a	n/a	n/a	n/a	-999	-999	n/a	n/a	-999	6	[0, 0, 0]	n/a	0	1	0	n/a	n/a	0.0	0	0	0	PAL2	0	R1112M
829.877	31.955	1367477	PROB	31.955	n/a	n/a	n/a	-999	-999	n/a	n/a	-999	6	[3, 6, 8]	17	0	1	0	n/a	n/a	0.0	0	0	0	PAL2	0	R1112M
861.832	0.018	1383453	STOP	n/a	n/a	n/a	n/a	-999	-999	n/a	n/a	-999	6	[-999, -999, -999]	n/a	0	1	0	n/a	n/a	0.0	0	0	0	PAL2	0	R1112M
861.85	0.0	1383462	MATH_END	n/a	n/a	n/a	n/a	-999	-999	n/a	n/a	-999	6	[0, 0, 0]	n/a	0	1	0	n/a	n/a	0.0	0	0	0	PAL2	0	R1112M
861.85	0.016	1383462	TEST_START	n/a	n/a	n/a	n/a	-999	-999	n/a	n/a	-999	6	[0, 0, 0]	n/a	0	1	0	n/a	n/a	0.0	0	0	0	PAL2	0	R1112M
861.866	0.25	1383470	TEST_ORIENT	n/a	n/a	SNOW	APE	3	1	APE	n/a	0	6	[0, 0, 0]	n/a	0	1	0	n/a	n/a	0.0	0	0	0	PAL2	0	R1112M
862.567	4.6	1383821	STIM_ON	n/a	n/a	SNOW	APE	3	1	APE	n/a	0	6	[0, 0, 0]	n/a	1	1	4600	RAD1	RAD2	500.0	50	230	300	PAL2	0	R1112M
862.783	4.0	1383929	TEST_PROBE	n/a	wordpools/wordpool_EN.txt	SNOW	APE	3	1	APE	n/a	0	6	[0, 0, 0]	n/a	1	1	4600	RAD1	RAD2	500.0	50	230	300	PAL2	0	R1112M
862.784	5.003	1383929	REC_START	n/a	n/a	n/a	n/a	3	-999	n/a	n/a	0	6	[0, 0, 0]	n/a	1	1	4600	RAD1	RAD2	500.0	50	230	300	PAL2	0	R1112M
867.787	0.005	1386431	REC_EVENT	5.003	n/a	SNOW	APE	3	1	APE	<>	0	6	[0, 0, 0]	n/a	0	1	0	n/a	n/a	0.0	0	0	0	PAL2	0	R1112M
867.792	0.009	1386433	REC_END	n/a	n/a	n/a	n/a	3	-999	n/a	n/a	-999	6	[0, 0, 0]	n/a	0	1	0	n/a	n/a	0.0	0	0	0	PAL2	0	R1112M
867.801	0.25	1386438	TEST_ORIENT	n/a	n/a	GLOVE	BEAR	4	2	GLOVE	n/a	0	6	[0, 0, 0]	n/a	0	1	0	n/a	n/a	0.0	0	0	0	PAL2	0	R1112M
868.617	4.0	1386846	TEST_PROBE	n/a	wordpools/wordpool_EN.txt	GLOVE	BEAR	4	2	GLOVE	n/a	0	6	[0, 0, 0]	n/a	0	1	0	n/a	n/a	0.0	0	0	0	PAL2	0	R1112M
868.617	5.015	1386846	REC_START	n/a	n/a	n/a	n/a	4	-999	n/a	n/a	0	6	[0, 0, 0]	n/a	0	1	0	n/a	n/a	0.0	0	0	0	PAL2	0	R1112M
873.632	0.002	1389353	REC_EVENT	5.015	n/a	GLOVE	BEAR	4	2	GLOVE	<>	0	6	[0, 0, 0]	n/a	0	1	0	n/a	n/a	0.0	0	0	0	PAL2	0	R1112M
873.634	0.017	1389354	REC_END	n/a	n/a	n/a	n/a	4	-999	n/a	n/a	-999	6	[0, 0, 0]	n/a	0	1	0	n/a	n/a	0.0	0	0	0	PAL2	0	R1112M
873.651	0.25	1389362	TEST_ORIENT	n/a	n/a	JUDGE	CAKE	5	3	CAKE	APE	0	6	[0, 0, 0]	n/a	0	1	0	n/a	n/a	0.0	0	0	0	PAL2	0	R1112M
874.324	4.6	1389699	STIM_ON	n/a	n/a	JUDGE	CAKE	5	3	CAKE	APE	0	6	[0, 0, 0]	n/a	1	1	4600	RAD1	RAD2	500.0	50	230	300	PAL2	0	R1112M
874.535	4.0	1389804	TEST_PROBE	n/a	wordpools/wordpool_EN.txt	JUDGE	CAKE	5	3	CAKE	APE	0	6	[0, 0, 0]	n/a	1	1	4600	RAD1	RAD2	500.0	50	230	300	PAL2	0	R1112M
874.535	2.968	1389804	REC_START	n/a	n/a	n/a	n/a	5	-999	n/a	APE	0	6	[0, 0, 0]	n/a	1	1	4600	RAD1	RAD2	500.0	50	230	300	PAL2	0	R1112M
877.503	2.049	1391288	REC_EVENT	2.968	n/a	JUDGE	CAKE	5	3	CAKE	APE	0	6	[0, 0, 0]	n/a	1	1	4600	RAD1	RAD2	500.0	50	230	300	PAL2	0	R1112M
879.552	0.017	1392313	REC_END	n/a	n/a	n/a	n/a	5	-999	n/a	n/a	-999	6	[0, 0, 0]	n/a	0	1	0	n/a	n/a	0.0	0	0	0	PAL2	0	R1112M
879.569	0.25	1392321	TEST_ORIENT	n/a	n/a	TREE	BAG	2	4	BAG	TRASH	0	6	[0, 0, 0]	n/a	0	1	0	n/a	n/a	0.0	0	0	0	PAL2	0	R1112M
880.469	4.0	1392771	TEST_PROBE	n/a	wordpools/wordpool_EN.txt	TREE	BAG	2	4	BAG	TRASH	0	6	[0, 0, 0]	n/a	0	1	0	n/a	n/a	0.0	0	0	0	PAL2	0	R1112M
880.47	1.705	1392772	REC_START	n/a	n/a	n/a	n/a	2	-999	n/a	TRASH	0	6	[0, 0, 0]	n/a	0	1	0	n/a	n/a	0.0	0	0	0	PAL2	0	R1112M
882.175	3.303	1393624	REC_EVENT	1.705	n/a	TREE	BAG	2	4	BAG	TRASH	0	6	[0, 0, 0]	n/a	0	1	0	n/a	n/a	0.0	0	0	0	PAL2	0	R1112M
885.478	0.009	1395276	REC_END	n/a	n/a	n/a	n/a	2	-999	n/a	n/a	-999	6	[0, 0, 0]	n/a	0	1	0	n/a	n/a	0.0	0	0	0	PAL2	0	R1112M
885.487	0.25	1395280	TEST_ORIENT	n/a	n/a	TIE	OAK	1	5	OAK	n/a	0	6	[0, 0, 0]	n/a	0	1	0	n/a	n/a	0.0	0	0	0	PAL2	0	R1112M
886.313	4.6	1395693	STIM_ON	n/a	n/a	TIE	OAK	1	5	OAK	n/a	0	6	[0, 0, 0]	n/a	1	1	4600	RAD1	RAD2	500.0	50	230	300	PAL2	0	R1112M
886.52	4.0	1395797	TEST_PROBE	n/a	wordpools/wordpool_EN.txt	TIE	OAK	1	5	OAK	n/a	0	6	[0, 0, 0]	n/a	1	1	4600	RAD1	RAD2	500.0	50	230	300	PAL2	0	R1112M
886.521	4.998	1395797	REC_START	n/a	n/a	n/a	n/a	1	-999	n/a	n/a	0	6	[0, 0, 0]	n/a	1	1	4600	RAD1	RAD2	500.0	50	230	300	PAL2	0	R1112M
891.519	0.002	1398296	REC_EVENT	4.998	n/a	TIE	OAK	1	5	OAK	<>	0	6	[0, 0, 0]	n/a	0	1	0	n/a	n/a	0.0	0	0	0	PAL2	0	R1112M
891.521	0.017	1398297	REC_END	n/a	n/a	n/a	n/a	1	-999	n/a	n/a	-999	6	[0, 0, 0]	n/a	0	1	0	n/a	n/a	0.0	0	0	0	PAL2	0	R1112M
891.538	0.25	1398305	TEST_ORIENT	n/a	n/a	CLAY	LAMP	6	6	CLAY	n/a	0	6	[0, 0, 0]	n/a	0	1	0	n/a	n/a	0.0	0	0	0	PAL2	0	R1112M
892.422	4.0	1398747	TEST_PROBE	n/a	wordpools/wordpool_EN.txt	CLAY	LAMP	6	6	CLAY	n/a	0	6	[0, 0, 0]	n/a	0	1	0	n/a	n/a	0.0	0	0	0	PAL2	0	R1112M
892.422	5.015	1398747	REC_START	n/a	n/a	n/a	n/a	6	-999	n/a	n/a	0	6	[0, 0, 0]	n/a	0	1	0	n/a	n/a	0.0	0	0	0	PAL2	0	R1112M
897.437	0.002	1401255	REC_EVENT	5.015	n/a	CLAY	LAMP	6	6	CLAY	<>	0	6	[0, 0, 0]	n/a	0	1	0	n/a	n/a	0.0	0	0	0	PAL2	0	R1112M
897.439	29.385	1401256	REC_END	n/a	n/a	n/a	n/a	6	-999	n/a	n/a	-999	6	[0, 0, 0]	n/a	0	1	0	n/a	n/a	0.0	0	0	0	PAL2	0	R1112M
926.824	10.457	1415947	ENCODING_START	n/a	n/a	n/a	n/a	0	-999	n/a	n/a	-999	7	[0, 0, 0]	n/a	0	1	0	n/a	n/a	0.0	0	0	0	PAL2	0	R1112M
937.281	0.25	1421176	STUDY_ORIENT	n/a	n/a	PEAR	WHEEL	1	1	WHEEL	n/a	0	7	[0, 0, 0]	n/a	0	1	0	n/a	n/a	0.0	0	0	0	PAL2	0	R1112M
938.264	4.0	1421667	STUDY_PAIR	n/a	wordpools/wordpool_EN.txt	PEAR	WHEEL	1	1	WHEEL	n/a	0	7	[0, 0, 0]	n/a	0	1	0	n/a	n/a	0.0	0	0	0	PAL2	0	R1112M
943.298	0.25	1424184	STUDY_ORIENT	n/a	n/a	NAIL	DITCH	2	6	NAIL	n/a	0	7	[0, 0, 0]	n/a	0	1	0	n/a	n/a	0.0	0	0	0	PAL2	0	R1112M
944.133	4.0	1424601	STUDY_PAIR	n/a	wordpools/wordpool_EN.txt	NAIL	DITCH	2	6	NAIL	n/a	0	7	[0, 0, 0]	n/a	0	1	0	n/a	n/a	0.0	0	0	0	PAL2	0	R1112M
949.166	0.25	1427118	STUDY_ORIENT	n/a	n/a	SHRIMP	DEER	3	5	SHRIMP	n/a	0	7	[0, 0, 0]	n/a	0	1	0	n/a	n/a	0.0	0	0	0	PAL2	0	R1112M
949.967	4.0	1427518	STUDY_PAIR	n/a	wordpools/wordpool_EN.txt	SHRIMP	DEER	3	5	SHRIMP	n/a	0	7	[0, 0, 0]	n/a	0	1	0	n/a	n/a	0.0	0	0	0	PAL2	0	R1112M
954.985	0.25	1430027	STUDY_ORIENT	n/a	n/a	SINK	BRIDGE	4	2	SINK	n/a	0	7	[0, 0, 0]	n/a	0	1	0	n/a	n/a	0.0	0	0	0	PAL2	0	R1112M
955.869	4.0	1430469	STUDY_PAIR	n/a	wordpools/wordpool_EN.txt	SINK	BRIDGE	4	2	SINK	n/a	0	7	[0, 0, 0]	n/a	0	1	0	n/a	n/a	0.0	0	0	0	PAL2	0	R1112M
960.903	0.25	1432986	STUDY_ORIENT	n/a	n/a	PALM	GUARD	5	3	PALM	n/a	0	7	[0, 0, 0]	n/a	0	1	0	n/a	n/a	0.0	0	0	0	PAL2	0	R1112M
961.702	4.0	1433386	STUDY_PAIR	n/a	wordpools/wordpool_EN.txt	PALM	GUARD	5	3	PALM	n/a	0	7	[0, 0, 0]	n/a	0	1	0	n/a	n/a	0.0	0	0	0	PAL2	0	R1112M
966.736	0.25	1435902	STUDY_ORIENT	n/a	n/a	RUG	LOCK	6	4	RUG	n/a	0	7	[0, 0, 0]	n/a	0	1	0	n/a	n/a	0.0	0	0	0	PAL2	0	R1112M
967.637	4.0	1436353	STUDY_PAIR	n/a	wordpools/wordpool_EN.txt	RUG	LOCK	6	4	RUG	n/a	0	7	[0, 0, 0]	n/a	0	1	0	n/a	n/a	0.0	0	0	0	PAL2	0	R1112M
971.655	0.999	1438362	START	n/a	n/a	n/a	n/a	-999	-999	n/a	n/a	-999	7	[-999, -999, -999]	n/a	0	1	0	n/a	n/a	0.0	0	0	0	PAL2	0	R1112M
972.654	0.017	1438861	MATH_START	n/a	n/a	n/a	n/a	-999	-999	n/a	n/a	-999	7	[0, 0, 0]	n/a	0	1	0	n/a	n/a	0.0	0	0	0	PAL2	0	R1112M
972.671	15.404	1438870	PROB	15.385	n/a	n/a	n/a	-999	-999	n/a	n/a	-999	7	[9, 9, 7]	25	0	1	0	n/a	n/a	0.0	0	0	0	PAL2	0	R1112M
988.075	9.164	1446571	PROB	9.164	n/a	n/a	n/a	-999	-999	n/a	n/a	-999	7	[8, 5, 1]	14	0	1	0	n/a	n/a	0.0	0	0	0	PAL2	0	R1112M
997.239	0.003	1451153	STOP	n/a	n/a	n/a	n/a	-999	-999	n/a	n/a	-999	7	[-999, -999, -999]	n/a	0	1	0	n/a	n/a	0.0	0	0	0	PAL2	0	R1112M
997.242	0.0	1451155	MATH_END	n/a	n/a	n/a	n/a	-999	-999	n/a	n/a	-999	7	[0, 0, 0]	n/a	0	1	0	n/a	n/a	0.0	0	0	0	PAL2	0	R1112M
997.242	0.017	1451155	TEST_START	n/a	n/a	n/a	n/a	-999	-999	n/a	n/a	-999	7	[0, 0, 0]	n/a	0	1	0	n/a	n/a	0.0	0	0	0	PAL2	0	R1112M
997.259	0.25	1451163	TEST_ORIENT	n/a	n/a	PEAR	WHEEL	1	1	WHEEL	n/a	0	7	[0, 0, 0]	n/a	0	1	0	n/a	n/a	0.0	0	0	0	PAL2	0	R1112M
997.896	4.6	1451482	STIM_ON	n/a	n/a	PEAR	WHEEL	1	1	WHEEL	n/a	0	7	[0, 0, 0]	n/a	1	1	4600	RAD1	RAD2	500.0	50	230	300	PAL2	0	R1112M
998.11	4.0	1451589	TEST_PROBE	n/a	wordpools/wordpool_EN.txt	PEAR	WHEEL	1	1	WHEEL	n/a	0	7	[0, 0, 0]	n/a	1	1	4600	RAD1	RAD2	500.0	50	230	300	PAL2	0	R1112M
998.111	5.008	1451589	REC_START	n/a	n/a	n/a	n/a	1	-999	n/a	n/a	0	7	[0, 0, 0]	n/a	1	1	4600	RAD1	RAD2	500.0	50	230	300	PAL2	0	R1112M
1003.119	0.001	1454093	REC_END	n/a	n/a	n/a	n/a	1	-999	n/a	n/a	-999	7	[0, 0, 0]	n/a	0	1	0	n/a	n/a	0.0	0	0	0	PAL2	0	R1112M
1003.12	0.008	1454093	REC_EVENT	5.009	n/a	PEAR	WHEEL	1	1	WHEEL	<>	0	7	[0, 0, 0]	n/a	0	1	0	n/a	n/a	0.0	0	0	0	PAL2	0	R1112M
1003.128	0.25	1454097	TEST_ORIENT	n/a	n/a	SINK	BRIDGE	4	2	SINK	n/a	0	7	[0, 0, 0]	n/a	0	1	0	n/a	n/a	0.0	0	0	0	PAL2	0	R1112M
1003.928	4.0	1454497	TEST_PROBE	n/a	wordpools/wordpool_EN.txt	SINK	BRIDGE	4	2	SINK	n/a	0	7	[0, 0, 0]	n/a	0	1	0	n/a	n/a	0.0	0	0	0	PAL2	0	R1112M
1003.929	5.008	1454498	REC_START	n/a	n/a	n/a	n/a	4	-999	n/a	n/a	0	7	[0, 0, 0]	n/a	0	1	0	n/a	n/a	0.0	0	0	0	PAL2	0	R1112M
1008.937	0.001	1457002	REC_END	n/a	n/a	n/a	n/a	4	-999	n/a	n/a	-999	7	[0, 0, 0]	n/a	0	1	0	n/a	n/a	0.0	0	0	0	PAL2	0	R1112M
1008.938	0.008	1457002	REC_EVENT	5.009	n/a	SINK	BRIDGE	4	2	SINK	<>	0	7	[0, 0, 0]	n/a	0	1	0	n/a	n/a	0.0	0	0	0	PAL2	0	R1112M
1008.946	0.25	1457006	TEST_ORIENT	n/a	n/a	PALM	GUARD	5	3	PALM	n/a	0	7	[0, 0, 0]	n/a	0	1	0	n/a	n/a	0.0	0	0	0	PAL2	0	R1112M
1009.759	4.6	1457413	STIM_ON	n/a	n/a	PALM	GUARD	5	3	PALM	n/a	0	7	[0, 0, 0]	n/a	1	1	4600	RAD1	RAD2	500.0	50	230	300	PAL2	0	R1112M
1009.963	4.0	1457515	TEST_PROBE	n/a	wordpools/wordpool_EN.txt	PALM	GUARD	5	3	PALM	n/a	0	7	[0, 0, 0]	n/a	1	1	4600	RAD1	RAD2	500.0	50	230	300	PAL2	0	R1112M
1009.964	5.021	1457515	REC_START	n/a	n/a	n/a	n/a	5	-999	n/a	n/a	0	7	[0, 0, 0]	n/a	1	1	4600	RAD1	RAD2	500.0	50	230	300	PAL2	0	R1112M
1014.985	0.003	1460026	REC_EVENT	5.021	n/a	PALM	GUARD	5	3	PALM	<>	0	7	[0, 0, 0]	n/a	0	1	0	n/a	n/a	0.0	0	0	0	PAL2	0	R1112M
1014.988	0.009	1460027	REC_END	n/a	n/a	n/a	n/a	5	-999	n/a	n/a	-999	7	[0, 0, 0]	n/a	0	1	0	n/a	n/a	0.0	0	0	0	PAL2	0	R1112M
1014.997	0.25	1460032	TEST_ORIENT	n/a	n/a	RUG	LOCK	6	4	RUG	n/a	0	7	[0, 0, 0]	n/a	0	1	0	n/a	n/a	0.0	0	0	0	PAL2	0	R1112M
1015.914	0.0	1460490	REC_START	n/a	n/a	n/a	n/a	6	-999	n/a	n/a	0	7	[0, 0, 0]	n/a	0	1	0	n/a	n/a	0.0	0	0	0	PAL2	0	R1112M
1015.914	4.0	1460490	TEST_PROBE	n/a	wordpools/wordpool_EN.txt	RUG	LOCK	6	4	RUG	n/a	0	7	[0, 0, 0]	n/a	0	1	0	n/a	n/a	0.0	0	0	0	PAL2	0	R1112M
1020.929	0.002	1462997	REC_EVENT	5.015	n/a	RUG	LOCK	6	4	RUG	<>	0	7	[0, 0, 0]	n/a	0	1	0	n/a	n/a	0.0	0	0	0	PAL2	0	R1112M
1020.931	0.017	1462998	REC_END	n/a	n/a	n/a	n/a	6	-999	n/a	n/a	-999	7	[0, 0, 0]	n/a	0	1	0	n/a	n/a	0.0	0	0	0	PAL2	0	R1112M
1020.948	0.25	1463007	TEST_ORIENT	n/a	n/a	SHRIMP	DEER	3	5	SHRIMP	n/a	0	7	[0, 0, 0]	n/a	0	1	0	n/a	n/a	0.0	0	0	0	PAL2	0	R1112M
1021.764	4.6	1463415	STIM_ON	n/a	n/a	SHRIMP	DEER	3	5	SHRIMP	n/a	0	7	[0, 0, 0]	n/a	1	1	4600	RAD1	RAD2	500.0	50	230	300	PAL2	0	R1112M
1021.982	4.0	1463524	TEST_PROBE	n/a	wordpools/wordpool_EN.txt	SHRIMP	DEER	3	5	SHRIMP	n/a	0	7	[0, 0, 0]	n/a	1	1	4600	RAD1	RAD2	500.0	50	230	300	PAL2	0	R1112M
1021.982	5.015	1463524	REC_START	n/a	n/a	n/a	n/a	3	-999	n/a	n/a	0	7	[0, 0, 0]	n/a	1	1	4600	RAD1	RAD2	500.0	50	230	300	PAL2	0	R1112M
1026.997	0.002	1466031	REC_EVENT	5.015	n/a	SHRIMP	DEER	3	5	SHRIMP	<>	0	7	[0, 0, 0]	n/a	0	1	0	n/a	n/a	0.0	0	0	0	PAL2	0	R1112M
1026.999	0.017	1466032	REC_END	n/a	n/a	n/a	n/a	3	-999	n/a	n/a	-999	7	[0, 0, 0]	n/a	0	1	0	n/a	n/a	0.0	0	0	0	PAL2	0	R1112M
1027.016	0.25	1466041	TEST_ORIENT	n/a	n/a	NAIL	DITCH	2	6	NAIL	n/a	0	7	[0, 0, 0]	n/a	0	1	0	n/a	n/a	0.0	0	0	0	PAL2	0	R1112M
1027.933	4.0	1466499	TEST_PROBE	n/a	wordpools/wordpool_EN.txt	NAIL	DITCH	2	6	NAIL	n/a	0	7	[0, 0, 0]	n/a	0	1	0	n/a	n/a	0.0	0	0	0	PAL2	0	R1112M
1027.934	5.015	1466500	REC_START	n/a	n/a	n/a	n/a	2	-999	n/a	n/a	0	7	[0, 0, 0]	n/a	0	1	0	n/a	n/a	0.0	0	0	0	PAL2	0	R1112M
1032.949	0.001	1469007	REC_EVENT	5.015	n/a	NAIL	DITCH	2	6	NAIL	<>	0	7	[0, 0, 0]	n/a	0	1	0	n/a	n/a	0.0	0	0	0	PAL2	0	R1112M
1032.95	6.034	1469008	REC_END	n/a	n/a	n/a	n/a	2	-999	n/a	n/a	-999	7	[0, 0, 0]	n/a	0	1	0	n/a	n/a	0.0	0	0	0	PAL2	0	R1112M
1038.984	10.452	1472024	ENCODING_START	n/a	n/a	n/a	n/a	0	-999	n/a	n/a	-999	8	[0, 0, 0]	n/a	0	1	0	n/a	n/a	0.0	0	0	0	PAL2	0	R1112M
1049.436	0.25	1477250	STUDY_ORIENT	n/a	n/a	DESK	PHONE	1	3	DESK	n/a	0	8	[0, 0, 0]	n/a	0	1	0	n/a	n/a	0.0	0	0	0	PAL2	0	R1112M
1050.37	4.0	1477717	STUDY_PAIR	n/a	wordpools/wordpool_EN.txt	DESK	PHONE	1	3	DESK	n/a	0	8	[0, 0, 0]	n/a	0	1	0	n/a	n/a	0.0	0	0	0	PAL2	0	R1112M
1055.404	0.25	1480234	STUDY_ORIENT	n/a	n/a	SPOON	COIN	2	4	SPOON	n/a	0	8	[0, 0, 0]	n/a	0	1	0	n/a	n/a	0.0	0	0	0	PAL2	0	R1112M
1056.12	4.6	1480592	STIM_ON	n/a	n/a	SPOON	COIN	2	4	SPOON	n/a	0	8	[0, 0, 0]	n/a	1	1	4600	RAD1	RAD2	500.0	50	230	300	PAL2	0	R1112M
1056.338	4.0	1480701	STUDY_PAIR	n/a	wordpools/wordpool_EN.txt	SPOON	COIN	2	4	SPOON	n/a	0	8	[0, 0, 0]	n/a	1	1	4600	RAD1	RAD2	500.0	50	230	300	PAL2	0	R1112M
1061.372	0.25	1483218	STUDY_ORIENT	n/a	n/a	PLATE	CHAIR	3	5	CHAIR	n/a	0	8	[0, 0, 0]	n/a	0	1	0	n/a	n/a	0.0	0	0	0	PAL2	0	R1112M
1062.289	4.0	1483676	STUDY_PAIR	n/a	wordpools/wordpool_EN.txt	PLATE	CHAIR	3	5	CHAIR	n/a	0	8	[0, 0, 0]	n/a	0	1	0	n/a	n/a	0.0	0	0	0	PAL2	0	R1112M
1067.323	0.25	1486193	STUDY_ORIENT	n/a	n/a	BAT	SNAIL	4	6	SNAIL	n/a	0	8	[0, 0, 0]	n/a	0	1	0	n/a	n/a	0.0	0	0	0	PAL2	0	R1112M
1068.112	4.6	1486588	STIM_ON	n/a	n/a	BAT	SNAIL	4	6	SNAIL	n/a	0	8	[0, 0, 0]	n/a	1	1	4600	RAD1	RAD2	500.0	50	230	300	PAL2	0	R1112M
1068.323	4.0	1486693	STUDY_PAIR	n/a	wordpools/wordpool_EN.txt	BAT	SNAIL	4	6	SNAIL	n/a	0	8	[0, 0, 0]	n/a	1	1	4600	RAD1	RAD2	500.0	50	230	300	PAL2	0	R1112M
1073.341	0.25	1489202	STUDY_ORIENT	n/a	n/a	TOAD	FLOOR	5	1	TOAD	n/a	0	8	[0, 0, 0]	n/a	0	1	0	n/a	n/a	0.0	0	0	0	PAL2	0	R1112M
1074.174	4.0	1489618	STUDY_PAIR	n/a	wordpools/wordpool_EN.txt	TOAD	FLOOR	5	1	TOAD	n/a	0	8	[0, 0, 0]	n/a	0	1	0	n/a	n/a	0.0	0	0	0	PAL2	0	R1112M
1079.192	0.25	1492127	STUDY_ORIENT	n/a	n/a	ROCK	SHARK	6	2	ROCK	SHARK	1	8	[0, 0, 0]	n/a	0	1	0	n/a	n/a	0.0	0	0	0	PAL2	0	R1112M
1079.802	4.6	1492432	STIM_ON	n/a	n/a	ROCK	SHARK	6	2	ROCK	SHARK	1	8	[0, 0, 0]	n/a	1	1	4600	RAD1	RAD2	500.0	50	230	300	PAL2	0	R1112M
1080.01	4.0	1492536	STUDY_PAIR	n/a	wordpools/wordpool_EN.txt	ROCK	SHARK	6	2	ROCK	SHARK	1	8	[0, 0, 0]	n/a	1	1	4600	RAD1	RAD2	500.0	50	230	300	PAL2	0	R1112M
1084.011	1.0	1494537	START	n/a	n/a	n/a	n/a	-999	-999	n/a	n/a	-999	8	[-999, -999, -999]	n/a	0	1	0	n/a	n/a	0.0	0	0	0	PAL2	0	R1112M
1085.011	0.017	1495037	MATH_START	n/a	n/a	n/a	n/a	-999	-999	n/a	n/a	-999	8	[0, 0, 0]	n/a	0	1	0	n/a	n/a	0.0	0	0	0	PAL2	0	R1112M
1085.028	16.77	1495045	PROB	16.748	n/a	n/a	n/a	-999	-999	n/a	n/a	-999	8	[9, 3, 8]	20	0	1	0	n/a	n/a	0.0	0	0	0	PAL2	0	R1112M
1101.798	15.074	1503430	PROB	15.074	n/a	n/a	n/a	-999	-999	n/a	n/a	-999	8	[3, 6, 8]	17	0	1	0	n/a	n/a	0.0	0	0	0	PAL2	0	R1112M
1116.872	0.012	1510966	STOP	n/a	n/a	n/a	n/a	-999	-999	n/a	n/a	-999	8	[-999, -999, -999]	n/a	0	1	0	n/a	n/a	0.0	0	0	0	PAL2	0	R1112M
1116.884	0.0	1510972	MATH_END	n/a	n/a	n/a	n/a	-999	-999	n/a	n/a	-999	8	[0, 0, 0]	n/a	0	1	0	n/a	n/a	0.0	0	0	0	PAL2	0	R1112M
1116.884	0.017	1510972	TEST_START	n/a	n/a	n/a	n/a	-999	-999	n/a	n/a	-999	8	[0, 0, 0]	n/a	0	1	0	n/a	n/a	0.0	0	0	0	PAL2	0	R1112M
1116.901	0.25	1510981	TEST_ORIENT	n/a	n/a	TOAD	FLOOR	5	1	TOAD	n/a	0	8	[0, 0, 0]	n/a	0	1	0	n/a	n/a	0.0	0	0	0	PAL2	0	R1112M
1117.918	4.0	1511489	TEST_PROBE	n/a	wordpools/wordpool_EN.txt	TOAD	FLOOR	5	1	TOAD	n/a	0	8	[0, 0, 0]	n/a	0	1	0	n/a	n/a	0.0	0	0	0	PAL2	0	R1112M
1117.918	5.015	1511489	REC_START	n/a	n/a	n/a	n/a	5	-999	n/a	n/a	0	8	[0, 0, 0]	n/a	0	1	0	n/a	n/a	0.0	0	0	0	PAL2	0	R1112M
1122.933	0.003	1513997	REC_EVENT	5.015	n/a	TOAD	FLOOR	5	1	TOAD	<>	0	8	[0, 0, 0]	n/a	0	1	0	n/a	n/a	0.0	0	0	0	PAL2	0	R1112M
1122.936	0.016	1513998	REC_END	n/a	n/a	n/a	n/a	5	-999	n/a	n/a	-999	8	[0, 0, 0]	n/a	0	1	0	n/a	n/a	0.0	0	0	0	PAL2	0	R1112M
1122.952	0.25	1514006	TEST_ORIENT	n/a	n/a	ROCK	SHARK	6	2	ROCK	SHARK	1	8	[0, 0, 0]	n/a	0	1	0	n/a	n/a	0.0	0	0	0	PAL2	0	R1112M
1123.785	4.0	1514423	TEST_PROBE	n/a	wordpools/wordpool_EN.txt	ROCK	SHARK	6	2	ROCK	SHARK	1	8	[0, 0, 0]	n/a	0	1	0	n/a	n/a	0.0	0	0	0	PAL2	0	R1112M
1123.786	2.466	1514423	REC_START	n/a	n/a	n/a	n/a	6	-999	n/a	SHARK	1	8	[0, 0, 0]	n/a	0	1	0	n/a	n/a	0.0	0	0	0	PAL2	0	R1112M
1126.252	2.542	1515656	REC_EVENT	2.466	n/a	ROCK	SHARK	6	2	ROCK	SHARK	1	8	[0, 0, 0]	n/a	0	1	0	n/a	n/a	0.0	0	0	0	PAL2	0	R1112M
1128.794	0.009	1516927	REC_END	n/a	n/a	n/a	n/a	6	-999	n/a	n/a	-999	8	[0, 0, 0]	n/a	0	1	0	n/a	n/a	0.0	0	0	0	PAL2	0	R1112M
1128.803	0.25	1516931	TEST_ORIENT	n/a	n/a	DESK	PHONE	1	3	DESK	n/a	0	8	[0, 0, 0]	n/a	0	1	0	n/a	n/a	0.0	0	0	0	PAL2	0	R1112M
1129.685	4.0	1517372	TEST_PROBE	n/a	wordpools/wordpool_EN.txt	DESK	PHONE	1	3	DESK	n/a	0	8	[0, 0, 0]	n/a	0	1	0	n/a	n/a	0.0	0	0	0	PAL2	0	R1112M
1129.686	5.008	1517373	REC_START	n/a	n/a	n/a	n/a	1	-999	n/a	n/a	0	8	[0, 0, 0]	n/a	0	1	0	n/a	n/a	0.0	0	0	0	PAL2	0	R1112M
1134.694	0.001	1519877	REC_END	n/a	n/a	n/a	n/a	1	-999	n/a	n/a	-999	8	[0, 0, 0]	n/a	0	1	0	n/a	n/a	0.0	0	0	0	PAL2	0	R1112M
1134.695	0.008	1519877	REC_EVENT	5.009	n/a	DESK	PHONE	1	3	DESK	<>	0	8	[0, 0, 0]	n/a	0	1	0	n/a	n/a	0.0	0	0	0	PAL2	0	R1112M
1134.703	0.25	1519881	TEST_ORIENT	n/a	n/a	SPOON	COIN	2	4	SPOON	n/a	0	8	[0, 0, 0]	n/a	0	1	0	n/a	n/a	0.0	0	0	0	PAL2	0	R1112M
1135.603	4.0	1520331	TEST_PROBE	n/a	wordpools/wordpool_EN.txt	SPOON	COIN	2	4	SPOON	n/a	0	8	[0, 0, 0]	n/a	0	1	0	n/a	n/a	0.0	0	0	0	PAL2	0	R1112M
1135.604	5.008	1520332	REC_START	n/a	n/a	n/a	n/a	2	-999	n/a	n/a	0	8	[0, 0, 0]	n/a	0	1	0	n/a	n/a	0.0	0	0	0	PAL2	0	R1112M
1140.612	0.001	1522836	REC_END	n/a	n/a	n/a	n/a	2	-999	n/a	n/a	-999	8	[0, 0, 0]	n/a	0	1	0	n/a	n/a	0.0	0	0	0	PAL2	0	R1112M
1140.613	0.008	1522836	REC_EVENT	5.009	n/a	SPOON	COIN	2	4	SPOON	<>	0	8	[0, 0, 0]	n/a	0	1	0	n/a	n/a	0.0	0	0	0	PAL2	0	R1112M
1140.621	0.25	1522840	TEST_ORIENT	n/a	n/a	PLATE	CHAIR	3	5	CHAIR	n/a	0	8	[0, 0, 0]	n/a	0	1	0	n/a	n/a	0.0	0	0	0	PAL2	0	R1112M
1141.421	4.0	1523240	TEST_PROBE	n/a	wordpools/wordpool_EN.txt	PLATE	CHAIR	3	5	CHAIR	n/a	0	8	[0, 0, 0]	n/a	0	1	0	n/a	n/a	0.0	0	0	0	PAL2	0	R1112M
1141.422	4.998	1523241	REC_START	n/a	n/a	n/a	n/a	3	-999	n/a	n/a	0	8	[0, 0, 0]	n/a	0	1	0	n/a	n/a	0.0	0	0	0	PAL2	0	R1112M
1146.42	0.002	1525739	REC_EVENT	4.998	n/a	PLATE	CHAIR	3	5	CHAIR	<>	0	8	[0, 0, 0]	n/a	0	1	0	n/a	n/a	0.0	0	0	0	PAL2	0	R1112M
1146.422	0.017	1525740	REC_END	n/a	n/a	n/a	n/a	3	-999	n/a	n/a	-999	8	[0, 0, 0]	n/a	0	1	0	n/a	n/a	0.0	0	0	0	PAL2	0	R1112M
1146.439	0.25	1525749	TEST_ORIENT	n/a	n/a	BAT	SNAIL	4	6	SNAIL	n/a	0	8	[0, 0, 0]	n/a	0	1	0	n/a	n/a	0.0	0	0	0	PAL2	0	R1112M
1147.272	4.0	1526165	TEST_PROBE	n/a	wordpools/wordpool_EN.txt	BAT	SNAIL	4	6	SNAIL	n/a	0	8	[0, 0, 0]	n/a	0	1	0	n/a	n/a	0.0	0	0	0	PAL2	0	R1112M
1147.273	5.003	1526166	REC_START	n/a	n/a	n/a	n/a	4	-999	n/a	n/a	0	8	[0, 0, 0]	n/a	0	1	0	n/a	n/a	0.0	0	0	0	PAL2	0	R1112M
1152.276	0.005	1528667	REC_EVENT	5.003	n/a	BAT	SNAIL	4	6	SNAIL	<>	0	8	[0, 0, 0]	n/a	0	1	0	n/a	n/a	0.0	0	0	0	PAL2	0	R1112M
1152.281	3.974	1528670	REC_END	n/a	n/a	n/a	n/a	4	-999	n/a	n/a	-999	8	[0, 0, 0]	n/a	0	1	0	n/a	n/a	0.0	0	0	0	PAL2	0	R1112M
1156.255	10.438	1530657	ENCODING_START	n/a	n/a	n/a	n/a	0	-999	n/a	n/a	-999	9	[0, 0, 0]	n/a	0	1	0	n/a	n/a	0.0	0	0	0	PAL2	0	R1112M
1166.693	0.25	1535875	STUDY_ORIENT	n/a	n/a	SKY	SHELL	1	3	SKY	n/a	0	9	[0, 0, 0]	n/a	0	1	0	n/a	n/a	0.0	0	0	0	PAL2	0	R1112M
1167.51	4.0	1536284	STUDY_PAIR	n/a	wordpools/wordpool_EN.txt	SKY	SHELL	1	3	SKY	n/a	0	9	[0, 0, 0]	n/a	0	1	0	n/a	n/a	0.0	0	0	0	PAL2	0	R1112M
1172.544	0.25	1538801	STUDY_ORIENT	n/a	n/a	STRAW	BATH	2	2	BATH	n/a	0	9	[0, 0, 0]	n/a	0	1	0	n/a	n/a	0.0	0	0	0	PAL2	0	R1112M
1173.461	4.0	1539259	STUDY_PAIR	n/a	wordpools/wordpool_EN.txt	STRAW	BATH	2	2	BATH	n/a	0	9	[0, 0, 0]	n/a	0	1	0	n/a	n/a	0.0	0	0	0	PAL2	0	R1112M
1178.495	0.25	1541776	STUDY_ORIENT	n/a	n/a	PRINCE	HORSE	3	1	HORSE	n/a	0	9	[0, 0, 0]	n/a	0	1	0	n/a	n/a	0.0	0	0	0	PAL2	0	R1112M
1179.479	4.0	1542268	STUDY_PAIR	n/a	wordpools/wordpool_EN.txt	PRINCE	HORSE	3	1	HORSE	n/a	0	9	[0, 0, 0]	n/a	0	1	0	n/a	n/a	0.0	0	0	0	PAL2	0	R1112M
1184.513	0.25	1544785	STUDY_ORIENT	n/a	n/a	GRAPE	ROPE	4	4	GRAPE	n/a	0	9	[0, 0, 0]	n/a	0	1	0	n/a	n/a	0.0	0	0	0	PAL2	0	R1112M
1185.447	4.0	1545252	STUDY_PAIR	n/a	wordpools/wordpool_EN.txt	GRAPE	ROPE	4	4	GRAPE	n/a	0	9	[0, 0, 0]	n/a	0	1	0	n/a	n/a	0.0	0	0	0	PAL2	0	R1112M
1190.481	0.25	1547769	STUDY_ORIENT	n/a	n/a	STAIR	HAWK	5	5	STAIR	n/a	0	9	[0, 0, 0]	n/a	0	1	0	n/a	n/a	0.0	0	0	0	PAL2	0	R1112M
1191.398	4.0	1548227	STUDY_PAIR	n/a	wordpools/wordpool_EN.txt	STAIR	HAWK	5	5	STAIR	n/a	0	9	[0, 0, 0]	n/a	0	1	0	n/a	n/a	0.0	0	0	0	PAL2	0	R1112M
1196.432	0.25	1550744	STUDY_ORIENT	n/a	n/a	KEY	STAR	6	6	STAR	n/a	0	9	[0, 0, 0]	n/a	0	1	0	n/a	n/a	0.0	0	0	0	PAL2	0	R1112M
1197.416	4.0	1551236	STUDY_PAIR	n/a	wordpools/wordpool_EN.txt	KEY	STAR	6	6	STAR	n/a	0	9	[0, 0, 0]	n/a	0	1	0	n/a	n/a	0.0	0	0	0	PAL2	0	R1112M
1201.434	0.999	1553245	START	n/a	n/a	n/a	n/a	-999	-999	n/a	n/a	-999	9	[-999, -999, -999]	n/a	0	1	0	n/a	n/a	0.0	0	0	0	PAL2	0	R1112M
1202.433	0.017	1553744	MATH_START	n/a	n/a	n/a	n/a	-999	-999	n/a	n/a	-999	9	[0, 0, 0]	n/a	0	1	0	n/a	n/a	0.0	0	0	0	PAL2	0	R1112M
1202.45	44.606	1553753	PROB	44.606	n/a	n/a	n/a	-999	-999	n/a	n/a	-999	9	[4, 8, 9]	21	0	1	0	n/a	n/a	0.0	0	0	0	PAL2	0	R1112M
1247.056	0.004	1576055	STOP	n/a	n/a	n/a	n/a	-999	-999	n/a	n/a	-999	9	[-999, -999, -999]	n/a	0	1	0	n/a	n/a	0.0	0	0	0	PAL2	0	R1112M
1247.06	0.0	1576057	MATH_END	n/a	n/a	n/a	n/a	-999	-999	n/a	n/a	-999	9	[0, 0, 0]	n/a	0	1	0	n/a	n/a	0.0	0	0	0	PAL2	0	R1112M
1247.06	0.017	1576057	TEST_START	n/a	n/a	n/a	n/a	-999	-999	n/a	n/a	-999	9	[0, 0, 0]	n/a	0	1	0	n/a	n/a	0.0	0	0	0	PAL2	0	R1112M
1247.077	0.25	1576065	TEST_ORIENT	n/a	n/a	PRINCE	HORSE	3	1	HORSE	n/a	0	9	[0, 0, 0]	n/a	0	1	0	n/a	n/a	0.0	0	0	0	PAL2	0	R1112M
1248.027	4.0	1576540	TEST_PROBE	n/a	wordpools/wordpool_EN.txt	PRINCE	HORSE	3	1	HORSE	n/a	0	9	[0, 0, 0]	n/a	0	1	0	n/a	n/a	0.0	0	0	0	PAL2	0	R1112M
1248.027	5.015	1576540	REC_START	n/a	n/a	n/a	n/a	3	-999	n/a	n/a	0	9	[0, 0, 0]	n/a	0	1	0	n/a	n/a	0.0	0	0	0	PAL2	0	R1112M
1253.042	0.002	1579047	REC_EVENT	5.015	n/a	PRINCE	HORSE	3	1	HORSE	<>	0	9	[0, 0, 0]	n/a	0	1	0	n/a	n/a	0.0	0	0	0	PAL2	0	R1112M
1253.044	0.017	1579048	REC_END	n/a	n/a	n/a	n/a	3	-999	n/a	n/a	-999	9	[0, 0, 0]	n/a	0	1	0	n/a	n/a	0.0	0	0	0	PAL2	0	R1112M
1253.061	0.25	1579057	TEST_ORIENT	n/a	n/a	STRAW	BATH	2	2	BATH	n/a	0	9	[0, 0, 0]	n/a	0	1	0	n/a	n/a	0.0	0	0	0	PAL2	0	R1112M
1253.652	4.6	1579352	STIM_ON	n/a	n/a	STRAW	BATH	2	2	BATH	n/a	0	9	[0, 0, 0]	n/a	1	1	4600	RAD1	RAD2	500.0	50	230	300	PAL2	0	R1112M
1253.861	4.0	1579457	TEST_PROBE	n/a	wordpools/wordpool_EN.txt	STRAW	BATH	2	2	BATH	n/a	0	9	[0, 0, 0]	n/a	1	1	4600	RAD1	RAD2	500.0	50	230	300	PAL2	0	R1112M
1253.862	5.015	1579457	REC_START	n/a	n/a	n/a	n/a	2	-999	n/a	n/a	0	9	[0, 0, 0]	n/a	1	1	4600	RAD1	RAD2	500.0	50	230	300	PAL2	0	R1112M
1258.877	0.002	1581965	REC_EVENT	5.015	n/a	STRAW	BATH	2	2	BATH	<>	0	9	[0, 0, 0]	n/a	0	1	0	n/a	n/a	0.0	0	0	0	PAL2	0	R1112M
1258.879	0.017	1581966	REC_END	n/a	n/a	n/a	n/a	2	-999	n/a	n/a	-999	9	[0, 0, 0]	n/a	0	1	0	n/a	n/a	0.0	0	0	0	PAL2	0	R1112M
1258.896	0.25	1581974	TEST_ORIENT	n/a	n/a	SKY	SHELL	1	3	SKY	n/a	0	9	[0, 0, 0]	n/a	0	1	0	n/a	n/a	0.0	0	0	0	PAL2	0	R1112M
1259.779	4.0	1582416	TEST_PROBE	n/a	wordpools/wordpool_EN.txt	SKY	SHELL	1	3	SKY	n/a	0	9	[0, 0, 0]	n/a	0	1	0	n/a	n/a	0.0	0	0	0	PAL2	0	R1112M
1259.78	5.008	1582416	REC_START	n/a	n/a	n/a	n/a	1	-999	n/a	n/a	0	9	[0, 0, 0]	n/a	0	1	0	n/a	n/a	0.0	0	0	0	PAL2	0	R1112M
1264.788	0.001	1584920	REC_END	n/a	n/a	n/a	n/a	1	-999	n/a	n/a	-999	9	[0, 0, 0]	n/a	0	1	0	n/a	n/a	0.0	0	0	0	PAL2	0	R1112M
1264.789	0.008	1584921	REC_EVENT	5.009	n/a	SKY	SHELL	1	3	SKY	<>	0	9	[0, 0, 0]	n/a	0	1	0	n/a	n/a	0.0	0	0	0	PAL2	0	R1112M
1264.797	0.25	1584925	TEST_ORIENT	n/a	n/a	GRAPE	ROPE	4	4	GRAPE	n/a	0	9	[0, 0, 0]	n/a	0	1	0	n/a	n/a	0.0	0	0	0	PAL2	0	R1112M
1265.581	4.6	1585317	STIM_ON	n/a	n/a	GRAPE	ROPE	4	4	GRAPE	n/a	0	9	[0, 0, 0]	n/a	1	1	4600	RAD1	RAD2	500.0	50	230	300	PAL2	0	R1112M
1265.797	4.0	1585425	TEST_PROBE	n/a	wordpools/wordpool_EN.txt	GRAPE	ROPE	4	4	GRAPE	n/a	0	9	[0, 0, 0]	n/a	1	1	4600	RAD1	RAD2	500.0	50	230	300	PAL2	0	R1112M
1265.798	5.015	1585425	REC_START	n/a	n/a	n/a	n/a	4	-999	n/a	n/a	0	9	[0, 0, 0]	n/a	1	1	4600	RAD1	RAD2	500.0	50	230	300	PAL2	0	R1112M
1270.813	0.001	1587932	REC_EVENT	5.015	n/a	GRAPE	ROPE	4	4	GRAPE	<>	0	9	[0, 0, 0]	n/a	0	1	0	n/a	n/a	0.0	0	0	0	PAL2	0	R1112M
1270.814	0.017	1587933	REC_END	n/a	n/a	n/a	n/a	4	-999	n/a	n/a	-999	9	[0, 0, 0]	n/a	0	1	0	n/a	n/a	0.0	0	0	0	PAL2	0	R1112M
1270.831	0.25	1587941	TEST_ORIENT	n/a	n/a	STAIR	HAWK	5	5	STAIR	n/a	0	9	[0, 0, 0]	n/a	0	1	0	n/a	n/a	0.0	0	0	0	PAL2	0	R1112M
1271.765	0.0	1588408	REC_START	n/a	n/a	n/a	n/a	5	-999	n/a	n/a	0	9	[0, 0, 0]	n/a	0	1	0	n/a	n/a	0.0	0	0	0	PAL2	0	R1112M
1271.765	4.0	1588408	TEST_PROBE	n/a	wordpools/wordpool_EN.txt	STAIR	HAWK	5	5	STAIR	n/a	0	9	[0, 0, 0]	n/a	0	1	0	n/a	n/a	0.0	0	0	0	PAL2	0	R1112M
1276.78	0.002	1590916	REC_EVENT	5.015	n/a	STAIR	HAWK	5	5	STAIR	<>	0	9	[0, 0, 0]	n/a	0	1	0	n/a	n/a	0.0	0	0	0	PAL2	0	R1112M
1276.782	0.017	1590917	REC_END	n/a	n/a	n/a	n/a	5	-999	n/a	n/a	-999	9	[0, 0, 0]	n/a	0	1	0	n/a	n/a	0.0	0	0	0	PAL2	0	R1112M
1276.799	0.25	1590925	TEST_ORIENT	n/a	n/a	KEY	STAR	6	6	STAR	n/a	0	9	[0, 0, 0]	n/a	0	1	0	n/a	n/a	0.0	0	0	0	PAL2	0	R1112M
1277.557	4.6	1591304	STIM_ON	n/a	n/a	KEY	STAR	6	6	STAR	n/a	0	9	[0, 0, 0]	n/a	1	1	4600	RAD1	RAD2	500.0	50	230	300	PAL2	0	R1112M
1277.766	4.0	1591409	TEST_PROBE	n/a	wordpools/wordpool_EN.txt	KEY	STAR	6	6	STAR	n/a	0	9	[0, 0, 0]	n/a	1	1	4600	RAD1	RAD2	500.0	50	230	300	PAL2	0	R1112M
1277.767	5.025	1591409	REC_START	n/a	n/a	n/a	n/a	6	-999	n/a	n/a	0	9	[0, 0, 0]	n/a	1	1	4600	RAD1	RAD2	500.0	50	230	300	PAL2	0	R1112M
1282.792	0.002	1593922	REC_END	n/a	n/a	n/a	n/a	6	-999	n/a	n/a	-999	9	[0, 0, 0]	n/a	0	1	0	n/a	n/a	0.0	0	0	0	PAL2	0	R1112M
1282.794	4.302	1593923	REC_EVENT	5.027	n/a	KEY	STAR	6	6	STAR	<>	0	9	[0, 0, 0]	n/a	0	1	0	n/a	n/a	0.0	0	0	0	PAL2	0	R1112M
1287.096	10.44	1596074	ENCODING_START	n/a	n/a	n/a	n/a	0	-999	n/a	n/a	-999	10	[0, 0, 0]	n/a	0	1	0	n/a	n/a	0.0	0	0	0	PAL2	0	R1112M
1297.536	0.25	1601293	STUDY_ORIENT	n/a	n/a	MULE	BOX	1	1	MULE	n/a	0	10	[0, 0, 0]	n/a	0	1	0	n/a	n/a	0.0	0	0	0	PAL2	0	R1112M
1298.386	4.0	1601718	STUDY_PAIR	n/a	wordpools/wordpool_EN.txt	MULE	BOX	1	1	MULE	n/a	0	10	[0, 0, 0]	n/a	0	1	0	n/a	n/a	0.0	0	0	0	PAL2	0	R1112M
1303.42	0.25	1604235	STUDY_ORIENT	n/a	n/a	ROOT	SHEEP	2	2	ROOT	n/a	0	10	[0, 0, 0]	n/a	0	1	0	n/a	n/a	0.0	0	0	0	PAL2	0	R1112M
1304.304	4.0	1604677	STUDY_PAIR	n/a	wordpools/wordpool_EN.txt	ROOT	SHEEP	2	2	ROOT	n/a	0	10	[0, 0, 0]	n/a	0	1	0	n/a	n/a	0.0	0	0	0	PAL2	0	R1112M
1309.338	0.25	1607194	STUDY_ORIENT	n/a	n/a	FORT	TRAY	3	5	TRAY	n/a	0	10	[0, 0, 0]	n/a	0	1	0	n/a	n/a	0.0	0	0	0	PAL2	0	R1112M
1310.205	4.0	1607627	STUDY_PAIR	n/a	wordpools/wordpool_EN.txt	FORT	TRAY	3	5	TRAY	n/a	0	10	[0, 0, 0]	n/a	0	1	0	n/a	n/a	0.0	0	0	0	PAL2	0	R1112M
1315.239	0.25	1610144	STUDY_ORIENT	n/a	n/a	DOOR	CASH	4	6	CASH	n/a	0	10	[0, 0, 0]	n/a	0	1	0	n/a	n/a	0.0	0	0	0	PAL2	0	R1112M
1316.124	4.0	1610587	STUDY_PAIR	n/a	wordpools/wordpool_EN.txt	DOOR	CASH	4	6	CASH	n/a	0	10	[0, 0, 0]	n/a	0	1	0	n/a	n/a	0.0	0	0	0	PAL2	0	R1112M
1321.157	0.25	1613103	STUDY_ORIENT	n/a	n/a	WING	PEN	5	3	WING	n/a	0	10	[0, 0, 0]	n/a	0	1	0	n/a	n/a	0.0	0	0	0	PAL2	0	R1112M
1322.008	4.0	1613529	STUDY_PAIR	n/a	wordpools/wordpool_EN.txt	WING	PEN	5	3	WING	n/a	0	10	[0, 0, 0]	n/a	0	1	0	n/a	n/a	0.0	0	0	0	PAL2	0	R1112M
1327.026	0.25	1616037	STUDY_ORIENT	n/a	n/a	WAND	STEAM	6	4	STEAM	n/a	0	10	[0, 0, 0]	n/a	0	1	0	n/a	n/a	0.0	0	0	0	PAL2	0	R1112M
1327.943	4.0	1616496	STUDY_PAIR	n/a	wordpools/wordpool_EN.txt	WAND	STEAM	6	4	STEAM	n/a	0	10	[0, 0, 0]	n/a	0	1	0	n/a	n/a	0.0	0	0	0	PAL2	0	R1112M
1331.96	1.0	1618504	START	n/a	n/a	n/a	n/a	-999	-999	n/a	n/a	-999	10	[-999, -999, -999]	n/a	0	1	0	n/a	n/a	0.0	0	0	0	PAL2	0	R1112M
1332.96	0.017	1619004	MATH_START	n/a	n/a	n/a	n/a	-999	-999	n/a	n/a	-999	10	[0, 0, 0]	n/a	0	1	0	n/a	n/a	0.0	0	0	0	PAL2	0	R1112M
1332.977	11.668	1619013	PROB	11.638	n/a	n/a	n/a	-999	-999	n/a	n/a	-999	10	[5, 6, 4]	15	0	1	0	n/a	n/a	0.0	0	0	0	PAL2	0	R1112M
1344.645	10.243	1624846	PROB	10.243	n/a	n/a	n/a	-999	-999	n/a	n/a	-999	10	[3, 9, 2]	14	0	1	0	n/a	n/a	0.0	0	0	0	PAL2	0	R1112M
1354.888	0.01	1629968	STOP	n/a	n/a	n/a	n/a	-999	-999	n/a	n/a	-999	10	[-999, -999, -999]	n/a	0	1	0	n/a	n/a	0.0	0	0	0	PAL2	0	R1112M
1354.898	0.0	1629973	MATH_END	n/a	n/a	n/a	n/a	-999	-999	n/a	n/a	-999	10	[0, 0, 0]	n/a	0	1	0	n/a	n/a	0.0	0	0	0	PAL2	0	R1112M
1354.898	0.017	1629973	TEST_START	n/a	n/a	n/a	n/a	-999	-999	n/a	n/a	-999	10	[0, 0, 0]	n/a	0	1	0	n/a	n/a	0.0	0	0	0	PAL2	0	R1112M
1354.915	0.25	1629981	TEST_ORIENT	n/a	n/a	MULE	BOX	1	1	MULE	n/a	0	10	[0, 0, 0]	n/a	0	1	0	n/a	n/a	0.0	0	0	0	PAL2	0	R1112M
1355.71	4.6	1630379	STIM_ON	n/a	n/a	MULE	BOX	1	1	MULE	n/a	0	10	[0, 0, 0]	n/a	1	1	4600	RAD1	RAD2	500.0	50	230	300	PAL2	0	R1112M
1355.915	4.0	1630481	TEST_PROBE	n/a	wordpools/wordpool_EN.txt	MULE	BOX	1	1	MULE	n/a	0	10	[0, 0, 0]	n/a	1	1	4600	RAD1	RAD2	500.0	50	230	300	PAL2	0	R1112M
1355.916	5.024	1630482	REC_START	n/a	n/a	n/a	n/a	1	-999	n/a	n/a	0	10	[0, 0, 0]	n/a	1	1	4600	RAD1	RAD2	500.0	50	230	300	PAL2	0	R1112M
1360.94	0.003	1632993	REC_END	n/a	n/a	n/a	n/a	1	-999	n/a	n/a	-999	10	[0, 0, 0]	n/a	0	1	0	n/a	n/a	0.0	0	0	0	PAL2	0	R1112M
1360.943	0.006	1632995	REC_EVENT	5.027	n/a	MULE	BOX	1	1	MULE	<>	0	10	[0, 0, 0]	n/a	0	1	0	n/a	n/a	0.0	0	0	0	PAL2	0	R1112M
1360.949	0.25	1632998	TEST_ORIENT	n/a	n/a	ROOT	SHEEP	2	2	ROOT	n/a	0	10	[0, 0, 0]	n/a	0	1	0	n/a	n/a	0.0	0	0	0	PAL2	0	R1112M
1361.816	4.0	1633431	TEST_PROBE	n/a	wordpools/wordpool_EN.txt	ROOT	SHEEP	2	2	ROOT	n/a	0	10	[0, 0, 0]	n/a	0	1	0	n/a	n/a	0.0	0	0	0	PAL2	0	R1112M
1361.817	4.998	1633432	REC_START	n/a	n/a	n/a	n/a	2	-999	n/a	n/a	0	10	[0, 0, 0]	n/a	0	1	0	n/a	n/a	0.0	0	0	0	PAL2	0	R1112M
1366.815	0.002	1635931	REC_EVENT	4.998	n/a	ROOT	SHEEP	2	2	ROOT	<>	0	10	[0, 0, 0]	n/a	0	1	0	n/a	n/a	0.0	0	0	0	PAL2	0	R1112M
1366.817	0.017	1635932	REC_END	n/a	n/a	n/a	n/a	2	-999	n/a	n/a	-999	10	[0, 0, 0]	n/a	0	1	0	n/a	n/a	0.0	0	0	0	PAL2	0	R1112M
1366.834	0.25	1635940	TEST_ORIENT	n/a	n/a	WING	PEN	5	3	WING	n/a	0	10	[0, 0, 0]	n/a	0	1	0	n/a	n/a	0.0	0	0	0	PAL2	0	R1112M
1367.476	4.6	1636261	STIM_ON	n/a	n/a	WING	PEN	5	3	WING	n/a	0	10	[0, 0, 0]	n/a	1	1	4600	RAD1	RAD2	500.0	50	230	300	PAL2	0	R1112M
1367.683	4.0	1636365	TEST_PROBE	n/a	wordpools/wordpool_EN.txt	WING	PEN	5	3	WING	n/a	0	10	[0, 0, 0]	n/a	1	1	4600	RAD1	RAD2	500.0	50	230	300	PAL2	0	R1112M
1367.683	5.015	1636365	REC_START	n/a	n/a	n/a	n/a	5	-999	n/a	n/a	0	10	[0, 0, 0]	n/a	1	1	4600	RAD1	RAD2	500.0	50	230	300	PAL2	0	R1112M
1372.698	0.002	1638872	REC_EVENT	5.015	n/a	WING	PEN	5	3	WING	<>	0	10	[0, 0, 0]	n/a	0	1	0	n/a	n/a	0.0	0	0	0	PAL2	0	R1112M
1372.7	0.017	1638873	REC_END	n/a	n/a	n/a	n/a	5	-999	n/a	n/a	-999	10	[0, 0, 0]	n/a	0	1	0	n/a	n/a	0.0	0	0	0	PAL2	0	R1112M
1372.717	0.25	1638882	TEST_ORIENT	n/a	n/a	WAND	STEAM	6	4	STEAM	n/a	0	10	[0, 0, 0]	n/a	0	1	0	n/a	n/a	0.0	0	0	0	PAL2	0	R1112M
1373.601	4.0	1639324	TEST_PROBE	n/a	wordpools/wordpool_EN.txt	WAND	STEAM	6	4	STEAM	n/a	0	10	[0, 0, 0]	n/a	0	1	0	n/a	n/a	0.0	0	0	0	PAL2	0	R1112M
1373.601	5.015	1639324	REC_START	n/a	n/a	n/a	n/a	6	-999	n/a	n/a	0	10	[0, 0, 0]	n/a	0	1	0	n/a	n/a	0.0	0	0	0	PAL2	0	R1112M
1378.616	0.002	1641831	REC_EVENT	5.015	n/a	WAND	STEAM	6	4	STEAM	<>	0	10	[0, 0, 0]	n/a	0	1	0	n/a	n/a	0.0	0	0	0	PAL2	0	R1112M
1378.618	0.017	1641832	REC_END	n/a	n/a	n/a	n/a	6	-999	n/a	n/a	-999	10	[0, 0, 0]	n/a	0	1	0	n/a	n/a	0.0	0	0	0	PAL2	0	R1112M
1378.635	0.25	1641840	TEST_ORIENT	n/a	n/a	FORT	TRAY	3	5	TRAY	n/a	0	10	[0, 0, 0]	n/a	0	1	0	n/a	n/a	0.0	0	0	0	PAL2	0	R1112M
1379.343	4.6	1642194	STIM_ON	n/a	n/a	FORT	TRAY	3	5	TRAY	n/a	0	10	[0, 0, 0]	n/a	1	1	4600	RAD1	RAD2	500.0	50	230	300	PAL2	0	R1112M
1379.552	4.0	1642299	TEST_PROBE	n/a	wordpools/wordpool_EN.txt	FORT	TRAY	3	5	TRAY	n/a	0	10	[0, 0, 0]	n/a	1	1	4600	RAD1	RAD2	500.0	50	230	300	PAL2	0	R1112M
1379.553	5.017	1642299	REC_START	n/a	n/a	n/a	n/a	3	-999	n/a	n/a	0	10	[0, 0, 0]	n/a	1	1	4600	RAD1	RAD2	500.0	50	230	300	PAL2	0	R1112M
1384.57	0.004	1644808	REC_END	n/a	n/a	n/a	n/a	3	-999	n/a	n/a	-999	10	[0, 0, 0]	n/a	0	1	0	n/a	n/a	0.0	0	0	0	PAL2	0	R1112M
1384.574	0.012	1644810	REC_EVENT	5.021	n/a	FORT	TRAY	3	5	TRAY	<>	0	10	[0, 0, 0]	n/a	0	1	0	n/a	n/a	0.0	0	0	0	PAL2	0	R1112M
1384.586	0.25	1644816	TEST_ORIENT	n/a	n/a	DOOR	CASH	4	6	CASH	n/a	0	10	[0, 0, 0]	n/a	0	1	0	n/a	n/a	0.0	0	0	0	PAL2	0	R1112M
1385.437	4.0	1645241	TEST_PROBE	n/a	wordpools/wordpool_EN.txt	DOOR	CASH	4	6	CASH	n/a	0	10	[0, 0, 0]	n/a	0	1	0	n/a	n/a	0.0	0	0	0	PAL2	0	R1112M
1385.437	5.015	1645241	REC_START	n/a	n/a	n/a	n/a	4	-999	n/a	n/a	0	10	[0, 0, 0]	n/a	0	1	0	n/a	n/a	0.0	0	0	0	PAL2	0	R1112M
1390.452	0.002	1647749	REC_EVENT	5.015	n/a	DOOR	CASH	4	6	CASH	<>	0	10	[0, 0, 0]	n/a	0	1	0	n/a	n/a	0.0	0	0	0	PAL2	0	R1112M
1390.454	28.841	1647750	REC_END	n/a	n/a	n/a	n/a	4	-999	n/a	n/a	-999	10	[0, 0, 0]	n/a	0	1	0	n/a	n/a	0.0	0	0	0	PAL2	0	R1112M
1419.295	10.45	1662169	ENCODING_START	n/a	n/a	n/a	n/a	0	-999	n/a	n/a	-999	11	[0, 0, 0]	n/a	0	1	0	n/a	n/a	0.0	0	0	0	PAL2	0	R1112M
1429.745	0.25	1667394	STUDY_ORIENT	n/a	n/a	BLUSH	SUIT	1	3	BLUSH	n/a	0	11	[0, 0, 0]	n/a	0	1	0	n/a	n/a	0.0	0	0	0	PAL2	0	R1112M
1430.579	4.0	1667811	STUDY_PAIR	n/a	wordpools/wordpool_EN.txt	BLUSH	SUIT	1	3	BLUSH	n/a	0	11	[0, 0, 0]	n/a	0	1	0	n/a	n/a	0.0	0	0	0	PAL2	0	R1112M
1435.613	0.25	1670328	STUDY_ORIENT	n/a	n/a	DUCK	DOLL	2	6	DUCK	n/a	0	11	[0, 0, 0]	n/a	0	1	0	n/a	n/a	0.0	0	0	0	PAL2	0	R1112M
1436.38	4.0	1670711	STUDY_PAIR	n/a	wordpools/wordpool_EN.txt	DUCK	DOLL	2	6	DUCK	n/a	0	11	[0, 0, 0]	n/a	0	1	0	n/a	n/a	0.0	0	0	0	PAL2	0	R1112M
1441.414	0.25	1673228	STUDY_ORIENT	n/a	n/a	PIG	CROWN	3	5	CROWN	n/a	0	11	[0, 0, 0]	n/a	0	1	0	n/a	n/a	0.0	0	0	0	PAL2	0	R1112M
1442.431	4.0	1673737	STUDY_PAIR	n/a	wordpools/wordpool_EN.txt	PIG	CROWN	3	5	CROWN	n/a	0	11	[0, 0, 0]	n/a	0	1	0	n/a	n/a	0.0	0	0	0	PAL2	0	R1112M
1447.449	0.25	1676246	STUDY_ORIENT	n/a	n/a	BADGE	CAVE	4	2	CAVE	n/a	0	11	[0, 0, 0]	n/a	0	1	0	n/a	n/a	0.0	0	0	0	PAL2	0	R1112M
1448.349	4.0	1676696	STUDY_PAIR	n/a	wordpools/wordpool_EN.txt	BADGE	CAVE	4	2	CAVE	n/a	0	11	[0, 0, 0]	n/a	0	1	0	n/a	n/a	0.0	0	0	0	PAL2	0	R1112M
1453.383	0.25	1679212	STUDY_ORIENT	n/a	n/a	DRESS	CANE	5	1	DRESS	DOLL	0	11	[0, 0, 0]	n/a	0	1	0	n/a	n/a	0.0	0	0	0	PAL2	0	R1112M
1454.383	4.0	1679712	STUDY_PAIR	n/a	wordpools/wordpool_EN.txt	DRESS	CANE	5	1	DRESS	DOLL	0	11	[0, 0, 0]	n/a	0	1	0	n/a	n/a	0.0	0	0	0	PAL2	0	R1112M
1459.401	0.25	1682221	STUDY_ORIENT	n/a	n/a	ROOM	DOG	6	4	DOG	RUN	0	11	[0, 0, 0]	n/a	0	1	0	n/a	n/a	0.0	0	0	0	PAL2	0	R1112M
1460.385	4.0	1682713	STUDY_PAIR	n/a	wordpools/wordpool_EN.txt	ROOM	DOG	6	4	DOG	RUN	0	11	[0, 0, 0]	n/a	0	1	0	n/a	n/a	0.0	0	0	0	PAL2	0	R1112M
1464.403	0.999	1684722	START	n/a	n/a	n/a	n/a	-999	-999	n/a	n/a	-999	11	[-999, -999, -999]	n/a	0	1	0	n/a	n/a	0.0	0	0	0	PAL2	0	R1112M
1465.402	0.017	1685222	MATH_START	n/a	n/a	n/a	n/a	-999	-999	n/a	n/a	-999	11	[0, 0, 0]	n/a	0	1	0	n/a	n/a	0.0	0	0	0	PAL2	0	R1112M
1465.419	11.002	1685230	PROB	10.98	n/a	n/a	n/a	-999	-999	n/a	n/a	-999	11	[2, 3, 9]	14	0	1	0	n/a	n/a	0.0	0	0	0	PAL2	0	R1112M
1476.421	9.635	1690731	PROB	9.635	n/a	n/a	n/a	-999	-999	n/a	n/a	-999	11	[8, 6, 8]	22	0	1	0	n/a	n/a	0.0	0	0	0	PAL2	0	R1112M
1486.056	0.018	1695548	STOP	n/a	n/a	n/a	n/a	-999	-999	n/a	n/a	-999	11	[-999, -999, -999]	n/a	0	1	0	n/a	n/a	0.0	0	0	0	PAL2	0	R1112M
1486.074	0.0	1695557	MATH_END	n/a	n/a	n/a	n/a	-999	-999	n/a	n/a	-999	11	[0, 0, 0]	n/a	0	1	0	n/a	n/a	0.0	0	0	0	PAL2	0	R1112M
1486.074	0.017	1695557	TEST_START	n/a	n/a	n/a	n/a	-999	-999	n/a	n/a	-999	11	[0, 0, 0]	n/a	0	1	0	n/a	n/a	0.0	0	0	0	PAL2	0	R1112M
1486.091	0.25	1695566	TEST_ORIENT	n/a	n/a	DRESS	CANE	5	1	DRESS	DOLL	0	11	[0, 0, 0]	n/a	0	1	0	n/a	n/a	0.0	0	0	0	PAL2	0	R1112M
1486.924	4.0	1695982	TEST_PROBE	n/a	wordpools/wordpool_EN.txt	DRESS	CANE	5	1	DRESS	DOLL	0	11	[0, 0, 0]	n/a	0	1	0	n/a	n/a	0.0	0	0	0	PAL2	0	R1112M
1486.925	2.731	1695982	REC_START	n/a	n/a	n/a	n/a	5	-999	n/a	DOLL	0	11	[0, 0, 0]	n/a	0	1	0	n/a	n/a	0.0	0	0	0	PAL2	0	R1112M
1489.656	2.277	1697348	REC_EVENT	2.731	n/a	DRESS	CANE	5	1	DRESS	DOLL	0	11	[0, 0, 0]	n/a	0	1	0	n/a	n/a	0.0	0	0	0	PAL2	0	R1112M
1491.933	0.009	1698486	REC_END	n/a	n/a	n/a	n/a	5	-999	n/a	n/a	-999	11	[0, 0, 0]	n/a	0	1	0	n/a	n/a	0.0	0	0	0	PAL2	0	R1112M
1491.942	0.25	1698491	TEST_ORIENT	n/a	n/a	BADGE	CAVE	4	2	CAVE	n/a	0	11	[0, 0, 0]	n/a	0	1	0	n/a	n/a	0.0	0	0	0	PAL2	0	R1112M
1492.589	4.6	1698814	STIM_ON	n/a	n/a	BADGE	CAVE	4	2	CAVE	n/a	0	11	[0, 0, 0]	n/a	1	1	4600	RAD1	RAD2	500.0	50	230	300	PAL2	0	R1112M
1492.792	4.0	1698916	TEST_PROBE	n/a	wordpools/wordpool_EN.txt	BADGE	CAVE	4	2	CAVE	n/a	0	11	[0, 0, 0]	n/a	1	1	4600	RAD1	RAD2	500.0	50	230	300	PAL2	0	R1112M
1492.793	5.003	1698916	REC_START	n/a	n/a	n/a	n/a	4	-999	n/a	n/a	0	11	[0, 0, 0]	n/a	1	1	4600	RAD1	RAD2	500.0	50	230	300	PAL2	0	R1112M
1497.796	0.005	1701418	REC_EVENT	5.003	n/a	BADGE	CAVE	4	2	CAVE	<>	0	11	[0, 0, 0]	n/a	0	1	0	n/a	n/a	0.0	0	0	0	PAL2	0	R1112M
1497.801	0.009	1701420	REC_END	n/a	n/a	n/a	n/a	4	-999	n/a	n/a	-999	11	[0, 0, 0]	n/a	0	1	0	n/a	n/a	0.0	0	0	0	PAL2	0	R1112M
1497.81	0.25	1701425	TEST_ORIENT	n/a	n/a	BLUSH	SUIT	1	3	BLUSH	n/a	0	11	[0, 0, 0]	n/a	0	1	0	n/a	n/a	0.0	0	0	0	PAL2	0	R1112M
1498.609	4.0	1701824	TEST_PROBE	n/a	wordpools/wordpool_EN.txt	BLUSH	SUIT	1	3	BLUSH	n/a	0	11	[0, 0, 0]	n/a	0	1	0	n/a	n/a	0.0	0	0	0	PAL2	0	R1112M
1498.61	5.008	1701825	REC_START	n/a	n/a	n/a	n/a	1	-999	n/a	n/a	0	11	[0, 0, 0]	n/a	0	1	0	n/a	n/a	0.0	0	0	0	PAL2	0	R1112M
1503.618	0.001	1704329	REC_END	n/a	n/a	n/a	n/a	1	-999	n/a	n/a	-999	11	[0, 0, 0]	n/a	0	1	0	n/a	n/a	0.0	0	0	0	PAL2	0	R1112M
1503.619	0.008	1704329	REC_EVENT	5.009	n/a	BLUSH	SUIT	1	3	BLUSH	<>	0	11	[0, 0, 0]	n/a	0	1	0	n/a	n/a	0.0	0	0	0	PAL2	0	R1112M
1503.627	0.25	1704333	TEST_ORIENT	n/a	n/a	ROOM	DOG	6	4	DOG	RUN	0	11	[0, 0, 0]	n/a	0	1	0	n/a	n/a	0.0	0	0	0	PAL2	0	R1112M
1504.238	4.6	1704639	STIM_ON	n/a	n/a	ROOM	DOG	6	4	DOG	RUN	0	11	[0, 0, 0]	n/a	1	1	4600	RAD1	RAD2	500.0	50	230	300	PAL2	0	R1112M
1504.444	4.0	1704741	TEST_PROBE	n/a	wordpools/wordpool_EN.txt	ROOM	DOG	6	4	DOG	RUN	0	11	[0, 0, 0]	n/a	1	1	4600	RAD1	RAD2	500.0	50	230	300	PAL2	0	R1112M
1504.444	2.781	1704741	REC_START	n/a	n/a	n/a	n/a	6	-999	n/a	RUN	0	11	[0, 0, 0]	n/a	1	1	4600	RAD1	RAD2	500.0	50	230	300	PAL2	0	R1112M
1507.225	2.236	1706132	REC_EVENT	2.781	n/a	ROOM	DOG	6	4	DOG	RUN	0	11	[0, 0, 0]	n/a	1	1	4600	RAD1	RAD2	500.0	50	230	300	PAL2	0	R1112M
1509.461	0.017	1707250	REC_END	n/a	n/a	n/a	n/a	6	-999	n/a	n/a	-999	11	[0, 0, 0]	n/a	0	1	0	n/a	n/a	0.0	0	0	0	PAL2	0	R1112M
1509.478	0.25	1707258	TEST_ORIENT	n/a	n/a	PIG	CROWN	3	5	CROWN	n/a	0	11	[0, 0, 0]	n/a	0	1	0	n/a	n/a	0.0	0	0	0	PAL2	0	R1112M
1510.528	4.0	1707783	TEST_PROBE	n/a	wordpools/wordpool_EN.txt	PIG	CROWN	3	5	CROWN	n/a	0	11	[0, 0, 0]	n/a	0	1	0	n/a	n/a	0.0	0	0	0	PAL2	0	R1112M
1510.529	5.008	1707784	REC_START	n/a	n/a	n/a	n/a	3	-999	n/a	n/a	0	11	[0, 0, 0]	n/a	0	1	0	n/a	n/a	0.0	0	0	0	PAL2	0	R1112M
1515.537	0.001	1710288	REC_END	n/a	n/a	n/a	n/a	3	-999	n/a	n/a	-999	11	[0, 0, 0]	n/a	0	1	0	n/a	n/a	0.0	0	0	0	PAL2	0	R1112M
1515.538	0.008	1710288	REC_EVENT	5.009	n/a	PIG	CROWN	3	5	CROWN	<>	0	11	[0, 0, 0]	n/a	0	1	0	n/a	n/a	0.0	0	0	0	PAL2	0	R1112M
1515.546	0.25	1710292	TEST_ORIENT	n/a	n/a	DUCK	DOLL	2	6	DUCK	n/a	0	11	[0, 0, 0]	n/a	0	1	0	n/a	n/a	0.0	0	0	0	PAL2	0	R1112M
1516.305	4.6	1710672	STIM_ON	n/a	n/a	DUCK	DOLL	2	6	DUCK	n/a	0	11	[0, 0, 0]	n/a	1	1	4600	RAD1	RAD2	500.0	50	230	300	PAL2	0	R1112M
1516.513	4.0	1710776	TEST_PROBE	n/a	wordpools/wordpool_EN.txt	DUCK	DOLL	2	6	DUCK	n/a	0	11	[0, 0, 0]	n/a	1	1	4600	RAD1	RAD2	500.0	50	230	300	PAL2	0	R1112M
1516.513	5.015	1710776	REC_START	n/a	n/a	n/a	n/a	2	-999	n/a	n/a	0	11	[0, 0, 0]	n/a	1	1	4600	RAD1	RAD2	500.0	50	230	300	PAL2	0	R1112M
1521.528	0.002	1713283	REC_EVENT	5.015	n/a	DUCK	DOLL	2	6	DUCK	<>	0	11	[0, 0, 0]	n/a	0	1	0	n/a	n/a	0.0	0	0	0	PAL2	0	R1112M
1521.53	45.677	1713284	REC_END	n/a	n/a	n/a	n/a	2	-999	n/a	n/a	-999	11	[0, 0, 0]	n/a	0	1	0	n/a	n/a	0.0	0	0	0	PAL2	0	R1112M
1567.207	10.451	1736121	ENCODING_START	n/a	n/a	n/a	n/a	0	-999	n/a	n/a	-999	12	[0, 0, 0]	n/a	0	0	0	n/a	n/a	0.0	0	0	0	PAL2	0	R1112M
1577.658	0.25	1741346	STUDY_ORIENT	n/a	n/a	SHIP	CART	1	3	CART	n/a	0	12	[0, 0, 0]	n/a	0	0	0	n/a	n/a	0.0	0	0	0	PAL2	0	R1112M
1578.442	4.0	1741738	STUDY_PAIR	n/a	wordpools/wordpool_EN.txt	SHIP	CART	1	3	CART	n/a	0	12	[0, 0, 0]	n/a	0	0	0	n/a	n/a	0.0	0	0	0	PAL2	0	R1112M
1583.476	0.25	1744255	STUDY_ORIENT	n/a	n/a	BEE	BOMB	2	4	BEE	n/a	0	12	[0, 0, 0]	n/a	0	0	0	n/a	n/a	0.0	0	0	0	PAL2	0	R1112M
1584.443	4.0	1744739	STUDY_PAIR	n/a	wordpools/wordpool_EN.txt	BEE	BOMB	2	4	BEE	n/a	0	12	[0, 0, 0]	n/a	0	0	0	n/a	n/a	0.0	0	0	0	PAL2	0	R1112M
1589.477	0.25	1747256	STUDY_ORIENT	n/a	n/a	FLEA	WEED	3	5	WEED	n/a	0	12	[0, 0, 0]	n/a	0	0	0	n/a	n/a	0.0	0	0	0	PAL2	0	R1112M
1590.444	4.0	1747739	STUDY_PAIR	n/a	wordpools/wordpool_EN.txt	FLEA	WEED	3	5	WEED	n/a	0	12	[0, 0, 0]	n/a	0	0	0	n/a	n/a	0.0	0	0	0	PAL2	0	R1112M
1595.462	0.25	1750248	STUDY_ORIENT	n/a	n/a	BANK	FOX	4	2	FOX	n/a	0	12	[0, 0, 0]	n/a	0	0	0	n/a	n/a	0.0	0	0	0	PAL2	0	R1112M
1596.262	4.0	1750648	STUDY_PAIR	n/a	wordpools/wordpool_EN.txt	BANK	FOX	4	2	FOX	n/a	0	12	[0, 0, 0]	n/a	0	0	0	n/a	n/a	0.0	0	0	0	PAL2	0	R1112M
1601.296	0.25	1753165	STUDY_ORIENT	n/a	n/a	WAVE	CRANE	5	1	WAVE	n/a	0	12	[0, 0, 0]	n/a	0	0	0	n/a	n/a	0.0	0	0	0	PAL2	0	R1112M
1602.18	4.0	1753607	STUDY_PAIR	n/a	wordpools/wordpool_EN.txt	WAVE	CRANE	5	1	WAVE	n/a	0	12	[0, 0, 0]	n/a	0	0	0	n/a	n/a	0.0	0	0	0	PAL2	0	R1112M
1607.214	0.25	1756124	STUDY_ORIENT	n/a	n/a	SHIELD	SPRING	6	6	SPRING	n/a	0	12	[0, 0, 0]	n/a	0	0	0	n/a	n/a	0.0	0	0	0	PAL2	0	R1112M
1608.049	4.0	1756541	STUDY_PAIR	n/a	wordpools/wordpool_EN.txt	SHIELD	SPRING	6	6	SPRING	n/a	0	12	[0, 0, 0]	n/a	0	0	0	n/a	n/a	0.0	0	0	0	PAL2	0	R1112M
1612.067	0.999	1758550	START	n/a	n/a	n/a	n/a	-999	-999	n/a	n/a	-999	12	[-999, -999, -999]	n/a	0	0	0	n/a	n/a	0.0	0	0	0	PAL2	0	R1112M
1613.066	0.017	1759049	MATH_START	n/a	n/a	n/a	n/a	-999	-999	n/a	n/a	-999	12	[0, 0, 0]	n/a	0	0	0	n/a	n/a	0.0	0	0	0	PAL2	0	R1112M
1613.083	17.469	1759058	PROB	17.444	n/a	n/a	n/a	-999	-999	n/a	n/a	-999	12	[4, 9, 7]	20	0	0	0	n/a	n/a	0.0	0	0	0	PAL2	0	R1112M
1630.552	7.775	1767792	PROB	7.775	n/a	n/a	n/a	-999	-999	n/a	n/a	-999	12	[7, 7, 3]	17	0	0	0	n/a	n/a	0.0	0	0	0	PAL2	0	R1112M
1638.327	0.01	1771679	STOP	n/a	n/a	n/a	n/a	-999	-999	n/a	n/a	-999	12	[-999, -999, -999]	n/a	0	0	0	n/a	n/a	0.0	0	0	0	PAL2	0	R1112M
1638.337	0.0	1771684	MATH_END	n/a	n/a	n/a	n/a	-999	-999	n/a	n/a	-999	12	[0, 0, 0]	n/a	0	0	0	n/a	n/a	0.0	0	0	0	PAL2	0	R1112M
1638.337	0.017	1771684	TEST_START	n/a	n/a	n/a	n/a	-999	-999	n/a	n/a	-999	12	[0, 0, 0]	n/a	0	0	0	n/a	n/a	0.0	0	0	0	PAL2	0	R1112M
1638.354	0.25	1771693	TEST_ORIENT	n/a	n/a	WAVE	CRANE	5	1	WAVE	n/a	0	12	[0, 0, 0]	n/a	0	0	0	n/a	n/a	0.0	0	0	0	PAL2	0	R1112M
1639.337	4.0	1772184	TEST_PROBE	n/a	wordpools/wordpool_EN.txt	WAVE	CRANE	5	1	WAVE	n/a	0	12	[0, 0, 0]	n/a	0	0	0	n/a	n/a	0.0	0	0	0	PAL2	0	R1112M
1639.338	5.01	1772185	REC_START	n/a	n/a	n/a	n/a	5	-999	n/a	n/a	0	12	[0, 0, 0]	n/a	0	0	0	n/a	n/a	0.0	0	0	0	PAL2	0	R1112M
1644.348	0.005	1774690	REC_END	n/a	n/a	n/a	n/a	5	-999	n/a	n/a	-999	12	[0, 0, 0]	n/a	0	0	0	n/a	n/a	0.0	0	0	0	PAL2	0	R1112M
1644.353	0.019	1774692	REC_EVENT	5.015	n/a	WAVE	CRANE	5	1	WAVE	<>	0	12	[0, 0, 0]	n/a	0	0	0	n/a	n/a	0.0	0	0	0	PAL2	0	R1112M
1644.372	0.25	1774702	TEST_ORIENT	n/a	n/a	BANK	FOX	4	2	FOX	n/a	0	12	[0, 0, 0]	n/a	0	0	0	n/a	n/a	0.0	0	0	0	PAL2	0	R1112M
1645.272	4.0	1775152	TEST_PROBE	n/a	wordpools/wordpool_EN.txt	BANK	FOX	4	2	FOX	n/a	0	12	[0, 0, 0]	n/a	0	0	0	n/a	n/a	0.0	0	0	0	PAL2	0	R1112M
1645.272	5.015	1775152	REC_START	n/a	n/a	n/a	n/a	4	-999	n/a	n/a	0	12	[0, 0, 0]	n/a	0	0	0	n/a	n/a	0.0	0	0	0	PAL2	0	R1112M
1650.287	0.002	1777659	REC_EVENT	5.015	n/a	BANK	FOX	4	2	FOX	<>	0	12	[0, 0, 0]	n/a	0	0	0	n/a	n/a	0.0	0	0	0	PAL2	0	R1112M
1650.289	0.017	1777660	REC_END	n/a	n/a	n/a	n/a	4	-999	n/a	n/a	-999	12	[0, 0, 0]	n/a	0	0	0	n/a	n/a	0.0	0	0	0	PAL2	0	R1112M
1650.306	0.25	1777668	TEST_ORIENT	n/a	n/a	SHIP	CART	1	3	CART	n/a	0	12	[0, 0, 0]	n/a	0	0	0	n/a	n/a	0.0	0	0	0	PAL2	0	R1112M
1651.173	4.0	1778102	TEST_PROBE	n/a	wordpools/wordpool_EN.txt	SHIP	CART	1	3	CART	n/a	0	12	[0, 0, 0]	n/a	0	0	0	n/a	n/a	0.0	0	0	0	PAL2	0	R1112M
1651.174	5.026	1778102	REC_START	n/a	n/a	n/a	n/a	1	-999	n/a	n/a	0	12	[0, 0, 0]	n/a	0	0	0	n/a	n/a	0.0	0	0	0	PAL2	0	R1112M
1656.2	0.001	1780615	REC_END	n/a	n/a	n/a	n/a	1	-999	n/a	n/a	-999	12	[0, 0, 0]	n/a	0	0	0	n/a	n/a	0.0	0	0	0	PAL2	0	R1112M
1656.201	0.023	1780616	REC_EVENT	5.027	n/a	SHIP	CART	1	3	CART	<>	0	12	[0, 0, 0]	n/a	0	0	0	n/a	n/a	0.0	0	0	0	PAL2	0	R1112M
1656.224	0.25	1780627	TEST_ORIENT	n/a	n/a	BEE	BOMB	2	4	BEE	n/a	0	12	[0, 0, 0]	n/a	0	0	0	n/a	n/a	0.0	0	0	0	PAL2	0	R1112M
1657.092	4.0	1781061	TEST_PROBE	n/a	wordpools/wordpool_EN.txt	BEE	BOMB	2	4	BEE	n/a	0	12	[0, 0, 0]	n/a	0	0	0	n/a	n/a	0.0	0	0	0	PAL2	0	R1112M
1657.092	5.015	1781061	REC_START	n/a	n/a	n/a	n/a	2	-999	n/a	n/a	0	12	[0, 0, 0]	n/a	0	0	0	n/a	n/a	0.0	0	0	0	PAL2	0	R1112M
1662.107	0.002	1783569	REC_EVENT	5.015	n/a	BEE	BOMB	2	4	BEE	<>	0	12	[0, 0, 0]	n/a	0	0	0	n/a	n/a	0.0	0	0	0	PAL2	0	R1112M
1662.109	0.017	1783570	REC_END	n/a	n/a	n/a	n/a	2	-999	n/a	n/a	-999	12	[0, 0, 0]	n/a	0	0	0	n/a	n/a	0.0	0	0	0	PAL2	0	R1112M
1662.126	0.25	1783578	TEST_ORIENT	n/a	n/a	FLEA	WEED	3	5	WEED	n/a	0	12	[0, 0, 0]	n/a	0	0	0	n/a	n/a	0.0	0	0	0	PAL2	0	R1112M
1663.076	4.0	1784053	TEST_PROBE	n/a	wordpools/wordpool_EN.txt	FLEA	WEED	3	5	WEED	n/a	0	12	[0, 0, 0]	n/a	0	0	0	n/a	n/a	0.0	0	0	0	PAL2	0	R1112M
1663.077	5.009	1784054	REC_START	n/a	n/a	n/a	n/a	3	-999	n/a	n/a	0	12	[0, 0, 0]	n/a	0	0	0	n/a	n/a	0.0	0	0	0	PAL2	0	R1112M
1668.086	0.001	1786558	REC_EVENT	5.009	n/a	FLEA	WEED	3	5	WEED	<>	0	12	[0, 0, 0]	n/a	0	0	0	n/a	n/a	0.0	0	0	0	PAL2	0	R1112M
1668.087	0.024	1786558	REC_END	n/a	n/a	n/a	n/a	3	-999	n/a	n/a	-999	12	[0, 0, 0]	n/a	0	0	0	n/a	n/a	0.0	0	0	0	PAL2	0	R1112M
1668.111	0.25	1786570	TEST_ORIENT	n/a	n/a	SHIELD	SPRING	6	6	SPRING	n/a	0	12	[0, 0, 0]	n/a	0	0	0	n/a	n/a	0.0	0	0	0	PAL2	0	R1112M
1668.944	4.0	1786987	TEST_PROBE	n/a	wordpools/wordpool_EN.txt	SHIELD	SPRING	6	6	SPRING	n/a	0	12	[0, 0, 0]	n/a	0	0	0	n/a	n/a	0.0	0	0	0	PAL2	0	R1112M
1668.945	5.009	1786987	REC_START	n/a	n/a	n/a	n/a	6	-999	n/a	n/a	0	12	[0, 0, 0]	n/a	0	0	0	n/a	n/a	0.0	0	0	0	PAL2	0	R1112M
1673.954	0.001	1789492	REC_EVENT	5.009	n/a	SHIELD	SPRING	6	6	SPRING	<>	0	12	[0, 0, 0]	n/a	0	0	0	n/a	n/a	0.0	0	0	0	PAL2	0	R1112M
1673.955	3.909	1789492	REC_END	n/a	n/a	n/a	n/a	6	-999	n/a	n/a	-999	12	[0, 0, 0]	n/a	0	0	0	n/a	n/a	0.0	0	0	0	PAL2	0	R1112M
1677.864	10.45	1791447	ENCODING_START	n/a	n/a	n/a	n/a	0	-999	n/a	n/a	-999	13	[0, 0, 0]	n/a	0	0	0	n/a	n/a	0.0	0	0	0	PAL2	0	R1112M
1688.314	0.25	1796671	STUDY_ORIENT	n/a	n/a	SHIRT	BALL	1	5	BALL	n/a	0	13	[0, 0, 0]	n/a	0	0	0	n/a	n/a	0.0	0	0	0	PAL2	0	R1112M
1689.147	4.0	1797088	STUDY_PAIR	n/a	wordpools/wordpool_EN.txt	SHIRT	BALL	1	5	BALL	n/a	0	13	[0, 0, 0]	n/a	0	0	0	n/a	n/a	0.0	0	0	0	PAL2	0	R1112M
1694.165	0.25	1799597	STUDY_ORIENT	n/a	n/a	CHEEK	FUR	2	2	CHEEK	n/a	0	13	[0, 0, 0]	n/a	0	0	0	n/a	n/a	0.0	0	0	0	PAL2	0	R1112M
1695.083	4.0	1800056	STUDY_PAIR	n/a	wordpools/wordpool_EN.txt	CHEEK	FUR	2	2	CHEEK	n/a	0	13	[0, 0, 0]	n/a	0	0	0	n/a	n/a	0.0	0	0	0	PAL2	0	R1112M
1700.117	0.25	1802573	STUDY_ORIENT	n/a	n/a	ELF	MILK	3	3	ELF	SHELF	0	13	[0, 0, 0]	n/a	0	0	0	n/a	n/a	0.0	0	0	0	PAL2	0	R1112M
1701.084	4.0	1803056	STUDY_PAIR	n/a	wordpools/wordpool_EN.txt	ELF	MILK	3	3	ELF	SHELF	0	13	[0, 0, 0]	n/a	0	0	0	n/a	n/a	0.0	0	0	0	PAL2	0	R1112M
1706.118	0.25	1805573	STUDY_ORIENT	n/a	n/a	TEA	FOAM	4	6	FOAM	n/a	0	13	[0, 0, 0]	n/a	0	0	0	n/a	n/a	0.0	0	0	0	PAL2	0	R1112M
1706.902	4.0	1805965	STUDY_PAIR	n/a	wordpools/wordpool_EN.txt	TEA	FOAM	4	6	FOAM	n/a	0	13	[0, 0, 0]	n/a	0	0	0	n/a	n/a	0.0	0	0	0	PAL2	0	R1112M
1711.936	0.25	1808482	STUDY_ORIENT	n/a	n/a	BEAN	SOCK	5	1	SOCK	n/a	0	13	[0, 0, 0]	n/a	0	0	0	n/a	n/a	0.0	0	0	0	PAL2	0	R1112M
1712.735	4.0	1808881	STUDY_PAIR	n/a	wordpools/wordpool_EN.txt	BEAN	SOCK	5	1	SOCK	n/a	0	13	[0, 0, 0]	n/a	0	0	0	n/a	n/a	0.0	0	0	0	PAL2	0	R1112M
1717.753	0.25	1811390	STUDY_ORIENT	n/a	n/a	VINE	CORN	6	4	CORN	n/a	0	13	[0, 0, 0]	n/a	0	0	0	n/a	n/a	0.0	0	0	0	PAL2	0	R1112M
1718.536	4.0	1811782	STUDY_PAIR	n/a	wordpools/wordpool_EN.txt	VINE	CORN	6	4	CORN	n/a	0	13	[0, 0, 0]	n/a	0	0	0	n/a	n/a	0.0	0	0	0	PAL2	0	R1112M
1722.537	1.0	1813782	START	n/a	n/a	n/a	n/a	-999	-999	n/a	n/a	-999	13	[-999, -999, -999]	n/a	0	0	0	n/a	n/a	0.0	0	0	0	PAL2	0	R1112M
1723.537	0.017	1814282	MATH_START	n/a	n/a	n/a	n/a	-999	-999	n/a	n/a	-999	13	[0, 0, 0]	n/a	0	0	0	n/a	n/a	0.0	0	0	0	PAL2	0	R1112M
1723.554	22.813	1814290	PROB	22.813	n/a	n/a	n/a	-999	-999	n/a	n/a	-999	13	[8, 6, 9]	23	0	0	0	n/a	n/a	0.0	0	0	0	PAL2	0	R1112M
1746.367	0.008	1825696	STOP	n/a	n/a	n/a	n/a	-999	-999	n/a	n/a	-999	13	[-999, -999, -999]	n/a	0	0	0	n/a	n/a	0.0	0	0	0	PAL2	0	R1112M
1746.375	0.0	1825700	MATH_END	n/a	n/a	n/a	n/a	-999	-999	n/a	n/a	-999	13	[0, 0, 0]	n/a	0	0	0	n/a	n/a	0.0	0	0	0	PAL2	0	R1112M
1746.375	0.017	1825700	TEST_START	n/a	n/a	n/a	n/a	-999	-999	n/a	n/a	-999	13	[0, 0, 0]	n/a	0	0	0	n/a	n/a	0.0	0	0	0	PAL2	0	R1112M
1746.392	0.25	1825709	TEST_ORIENT	n/a	n/a	BEAN	SOCK	5	1	SOCK	n/a	0	13	[0, 0, 0]	n/a	0	0	0	n/a	n/a	0.0	0	0	0	PAL2	0	R1112M
1747.375	4.0	1826200	TEST_PROBE	n/a	wordpools/wordpool_EN.txt	BEAN	SOCK	5	1	SOCK	n/a	0	13	[0, 0, 0]	n/a	0	0	0	n/a	n/a	0.0	0	0	0	PAL2	0	R1112M
1747.376	5.009	1826201	REC_START	n/a	n/a	n/a	n/a	5	-999	n/a	n/a	0	13	[0, 0, 0]	n/a	0	0	0	n/a	n/a	0.0	0	0	0	PAL2	0	R1112M
1752.385	0.001	1828705	REC_EVENT	5.009	n/a	BEAN	SOCK	5	1	SOCK	<>	0	13	[0, 0, 0]	n/a	0	0	0	n/a	n/a	0.0	0	0	0	PAL2	0	R1112M
1752.386	0.024	1828706	REC_END	n/a	n/a	n/a	n/a	5	-999	n/a	n/a	-999	13	[0, 0, 0]	n/a	0	0	0	n/a	n/a	0.0	0	0	0	PAL2	0	R1112M
1752.41	0.25	1828718	TEST_ORIENT	n/a	n/a	CHEEK	FUR	2	2	CHEEK	n/a	0	13	[0, 0, 0]	n/a	0	0	0	n/a	n/a	0.0	0	0	0	PAL2	0	R1112M
1753.427	4.0	1829226	TEST_PROBE	n/a	wordpools/wordpool_EN.txt	CHEEK	FUR	2	2	CHEEK	n/a	0	13	[0, 0, 0]	n/a	0	0	0	n/a	n/a	0.0	0	0	0	PAL2	0	R1112M
1753.427	5.015	1829226	REC_START	n/a	n/a	n/a	n/a	2	-999	n/a	n/a	0	13	[0, 0, 0]	n/a	0	0	0	n/a	n/a	0.0	0	0	0	PAL2	0	R1112M
1758.442	0.002	1831733	REC_EVENT	5.015	n/a	CHEEK	FUR	2	2	CHEEK	<>	0	13	[0, 0, 0]	n/a	0	0	0	n/a	n/a	0.0	0	0	0	PAL2	0	R1112M
1758.444	0.017	1831734	REC_END	n/a	n/a	n/a	n/a	2	-999	n/a	n/a	-999	13	[0, 0, 0]	n/a	0	0	0	n/a	n/a	0.0	0	0	0	PAL2	0	R1112M
1758.461	0.25	1831743	TEST_ORIENT	n/a	n/a	ELF	MILK	3	3	ELF	SHELF	0	13	[0, 0, 0]	n/a	0	0	0	n/a	n/a	0.0	0	0	0	PAL2	0	R1112M
1759.261	4.0	1832143	TEST_PROBE	n/a	wordpools/wordpool_EN.txt	ELF	MILK	3	3	ELF	SHELF	0	13	[0, 0, 0]	n/a	0	0	0	n/a	n/a	0.0	0	0	0	PAL2	0	R1112M
1759.262	2.611	1832143	REC_START	n/a	n/a	n/a	n/a	3	-999	n/a	SHELF	0	13	[0, 0, 0]	n/a	0	0	0	n/a	n/a	0.0	0	0	0	PAL2	0	R1112M
1761.873	2.416	1833449	REC_EVENT	2.611	n/a	ELF	MILK	3	3	ELF	SHELF	0	13	[0, 0, 0]	n/a	0	0	0	n/a	n/a	0.0	0	0	0	PAL2	0	R1112M
1764.289	0.023	1834657	REC_END	n/a	n/a	n/a	n/a	3	-999	n/a	n/a	-999	13	[0, 0, 0]	n/a	0	0	0	n/a	n/a	0.0	0	0	0	PAL2	0	R1112M
1764.312	0.25	1834668	TEST_ORIENT	n/a	n/a	VINE	CORN	6	4	CORN	n/a	0	13	[0, 0, 0]	n/a	0	0	0	n/a	n/a	0.0	0	0	0	PAL2	0	R1112M
1765.246	0.0	1835135	REC_START	n/a	n/a	n/a	n/a	6	-999	n/a	n/a	0	13	[0, 0, 0]	n/a	0	0	0	n/a	n/a	0.0	0	0	0	PAL2	0	R1112M
1765.246	4.0	1835135	TEST_PROBE	n/a	wordpools/wordpool_EN.txt	VINE	CORN	6	4	CORN	n/a	0	13	[0, 0, 0]	n/a	0	0	0	n/a	n/a	0.0	0	0	0	PAL2	0	R1112M
1770.273	0.0	1837649	REC_EVENT	5.027	n/a	VINE	CORN	6	4	CORN	<>	0	13	[0, 0, 0]	n/a	0	0	0	n/a	n/a	0.0	0	0	0	PAL2	0	R1112M
1770.273	0.024	1837649	REC_END	n/a	n/a	n/a	n/a	6	-999	n/a	n/a	-999	13	[0, 0, 0]	n/a	0	0	0	n/a	n/a	0.0	0	0	0	PAL2	0	R1112M
1770.297	0.25	1837661	TEST_ORIENT	n/a	n/a	SHIRT	BALL	1	5	BALL	n/a	0	13	[0, 0, 0]	n/a	0	0	0	n/a	n/a	0.0	0	0	0	PAL2	0	R1112M
1771.115	4.0	1838070	TEST_PROBE	n/a	wordpools/wordpool_EN.txt	SHIRT	BALL	1	5	BALL	n/a	0	13	[0, 0, 0]	n/a	0	0	0	n/a	n/a	0.0	0	0	0	PAL2	0	R1112M
1771.115	5.015	1838070	REC_START	n/a	n/a	n/a	n/a	1	-999	n/a	n/a	0	13	[0, 0, 0]	n/a	0	0	0	n/a	n/a	0.0	0	0	0	PAL2	0	R1112M
1776.13	0.002	1840577	REC_EVENT	5.015	n/a	SHIRT	BALL	1	5	BALL	<>	0	13	[0, 0, 0]	n/a	0	0	0	n/a	n/a	0.0	0	0	0	PAL2	0	R1112M
1776.132	0.016	1840578	REC_END	n/a	n/a	n/a	n/a	1	-999	n/a	n/a	-999	13	[0, 0, 0]	n/a	0	0	0	n/a	n/a	0.0	0	0	0	PAL2	0	R1112M
1776.148	0.25	1840586	TEST_ORIENT	n/a	n/a	TEA	FOAM	4	6	FOAM	n/a	0	13	[0, 0, 0]	n/a	0	0	0	n/a	n/a	0.0	0	0	0	PAL2	0	R1112M
1777.148	4.0	1841086	TEST_PROBE	n/a	wordpools/wordpool_EN.txt	TEA	FOAM	4	6	FOAM	n/a	0	13	[0, 0, 0]	n/a	0	0	0	n/a	n/a	0.0	0	0	0	PAL2	0	R1112M
1777.149	5.015	1841086	REC_START	n/a	n/a	n/a	n/a	4	-999	n/a	n/a	0	13	[0, 0, 0]	n/a	0	0	0	n/a	n/a	0.0	0	0	0	PAL2	0	R1112M
1782.164	0.001	1843594	REC_EVENT	5.015	n/a	TEA	FOAM	4	6	FOAM	<>	0	13	[0, 0, 0]	n/a	0	0	0	n/a	n/a	0.0	0	0	0	PAL2	0	R1112M
1782.165	26.538	1843594	REC_END	n/a	n/a	n/a	n/a	4	-999	n/a	n/a	-999	13	[0, 0, 0]	n/a	0	0	0	n/a	n/a	0.0	0	0	0	PAL2	0	R1112M
1808.703	10.453	1856863	ENCODING_START	n/a	n/a	n/a	n/a	0	-999	n/a	n/a	-999	14	[0, 0, 0]	n/a	0	1	0	n/a	n/a	0.0	0	0	0	PAL2	0	R1112M
1819.156	0.25	1862089	STUDY_ORIENT	n/a	n/a	TAIL	DRUM	1	1	DRUM	n/a	0	14	[0, 0, 0]	n/a	0	1	0	n/a	n/a	0.0	0	0	0	PAL2	0	R1112M
1819.835	4.6	1862428	STIM_ON	n/a	n/a	TAIL	DRUM	1	1	DRUM	n/a	0	14	[0, 0, 0]	n/a	1	1	4600	RAD1	RAD2	500.0	50	230	300	PAL2	0	R1112M
1820.041	4.0	1862531	STUDY_PAIR	n/a	wordpools/wordpool_EN.txt	TAIL	DRUM	1	1	DRUM	n/a	0	14	[0, 0, 0]	n/a	1	1	4600	RAD1	RAD2	500.0	50	230	300	PAL2	0	R1112M
1825.075	0.25	1865048	STUDY_ORIENT	n/a	n/a	STONE	RICE	2	2	STONE	n/a	0	14	[0, 0, 0]	n/a	0	1	0	n/a	n/a	0.0	0	0	0	PAL2	0	R1112M
1826.109	4.0	1865565	STUDY_PAIR	n/a	wordpools/wordpool_EN.txt	STONE	RICE	2	2	STONE	n/a	0	14	[0, 0, 0]	n/a	0	1	0	n/a	n/a	0.0	0	0	0	PAL2	0	R1112M
1831.142	0.25	1868081	STUDY_ORIENT	n/a	n/a	ICE	GOLD	3	5	ICE	n/a	0	14	[0, 0, 0]	n/a	0	1	0	n/a	n/a	0.0	0	0	0	PAL2	0	R1112M
1831.735	4.6	1868378	STIM_ON	n/a	n/a	ICE	GOLD	3	5	ICE	n/a	0	14	[0, 0, 0]	n/a	1	1	4600	RAD1	RAD2	500.0	50	230	300	PAL2	0	R1112M
1831.943	4.0	1868482	STUDY_PAIR	n/a	wordpools/wordpool_EN.txt	ICE	GOLD	3	5	ICE	n/a	0	14	[0, 0, 0]	n/a	1	1	4600	RAD1	RAD2	500.0	50	230	300	PAL2	0	R1112M
1836.961	0.25	1870991	STUDY_ORIENT	n/a	n/a	BEACH	SEAT	4	6	BEACH	n/a	0	14	[0, 0, 0]	n/a	0	1	0	n/a	n/a	0.0	0	0	0	PAL2	0	R1112M
1837.778	4.0	1871399	STUDY_PAIR	n/a	wordpools/wordpool_EN.txt	BEACH	SEAT	4	6	BEACH	n/a	0	14	[0, 0, 0]	n/a	0	1	0	n/a	n/a	0.0	0	0	0	PAL2	0	R1112M
1842.812	0.25	1873916	STUDY_ORIENT	n/a	n/a	AXE	SKUNK	5	3	AXE	n/a	0	14	[0, 0, 0]	n/a	0	1	0	n/a	n/a	0.0	0	0	0	PAL2	0	R1112M
1843.586	4.6	1874303	STIM_ON	n/a	n/a	AXE	SKUNK	5	3	AXE	n/a	0	14	[0, 0, 0]	n/a	1	1	4600	RAD1	RAD2	500.0	50	230	300	PAL2	0	R1112M
1843.796	4.0	1874408	STUDY_PAIR	n/a	wordpools/wordpool_EN.txt	AXE	SKUNK	5	3	AXE	n/a	0	14	[0, 0, 0]	n/a	1	1	4600	RAD1	RAD2	500.0	50	230	300	PAL2	0	R1112M
1848.83	0.25	1876925	STUDY_ORIENT	n/a	n/a	BREAD	CROW	6	4	CROW	n/a	0	14	[0, 0, 0]	n/a	0	1	0	n/a	n/a	0.0	0	0	0	PAL2	0	R1112M
1849.746	4.0	1877383	STUDY_PAIR	n/a	wordpools/wordpool_EN.txt	BREAD	CROW	6	4	CROW	n/a	0	14	[0, 0, 0]	n/a	0	1	0	n/a	n/a	0.0	0	0	0	PAL2	0	R1112M
1853.765	0.999	1879392	START	n/a	n/a	n/a	n/a	-999	-999	n/a	n/a	-999	14	[-999, -999, -999]	n/a	0	1	0	n/a	n/a	0.0	0	0	0	PAL2	0	R1112M
1854.764	0.017	1879892	MATH_START	n/a	n/a	n/a	n/a	-999	-999	n/a	n/a	-999	14	[0, 0, 0]	n/a	0	1	0	n/a	n/a	0.0	0	0	0	PAL2	0	R1112M
1854.781	15.636	1879900	PROB	15.602	n/a	n/a	n/a	-999	-999	n/a	n/a	-999	14	[6, 8, 9]	23	0	1	0	n/a	n/a	0.0	0	0	0	PAL2	0	R1112M
1870.417	28.83	1887718	PROB	28.83	n/a	n/a	n/a	-999	-999	n/a	n/a	-999	14	[8, 9, 7]	24	0	1	0	n/a	n/a	0.0	0	0	0	PAL2	0	R1112M
1899.247	0.009	1902132	STOP	n/a	n/a	n/a	n/a	-999	-999	n/a	n/a	-999	14	[-999, -999, -999]	n/a	0	1	0	n/a	n/a	0.0	0	0	0	PAL2	0	R1112M
1899.256	0.0	1902137	MATH_END	n/a	n/a	n/a	n/a	-999	-999	n/a	n/a	-999	14	[0, 0, 0]	n/a	0	1	0	n/a	n/a	0.0	0	0	0	PAL2	0	R1112M
1899.256	0.016	1902137	TEST_START	n/a	n/a	n/a	n/a	-999	-999	n/a	n/a	-999	14	[0, 0, 0]	n/a	0	1	0	n/a	n/a	0.0	0	0	0	PAL2	0	R1112M
1899.272	0.25	1902145	TEST_ORIENT	n/a	n/a	TAIL	DRUM	1	1	DRUM	n/a	0	14	[0, 0, 0]	n/a	0	1	0	n/a	n/a	0.0	0	0	0	PAL2	0	R1112M
1900.289	4.0	1902653	TEST_PROBE	n/a	wordpools/wordpool_EN.txt	TAIL	DRUM	1	1	DRUM	n/a	0	14	[0, 0, 0]	n/a	0	1	0	n/a	n/a	0.0	0	0	0	PAL2	0	R1112M
1900.29	5.009	1902654	REC_START	n/a	n/a	n/a	n/a	1	-999	n/a	n/a	0	14	[0, 0, 0]	n/a	0	1	0	n/a	n/a	0.0	0	0	0	PAL2	0	R1112M
1905.299	0.001	1905158	REC_EVENT	5.009	n/a	TAIL	DRUM	1	1	DRUM	<>	0	14	[0, 0, 0]	n/a	0	1	0	n/a	n/a	0.0	0	0	0	PAL2	0	R1112M
1905.3	0.024	1905158	REC_END	n/a	n/a	n/a	n/a	1	-999	n/a	n/a	-999	14	[0, 0, 0]	n/a	0	1	0	n/a	n/a	0.0	0	0	0	PAL2	0	R1112M
1905.324	0.25	1905170	TEST_ORIENT	n/a	n/a	STONE	RICE	2	2	STONE	n/a	0	14	[0, 0, 0]	n/a	0	1	0	n/a	n/a	0.0	0	0	0	PAL2	0	R1112M
1906.34	4.0	1905678	TEST_PROBE	n/a	wordpools/wordpool_EN.txt	STONE	RICE	2	2	STONE	n/a	0	14	[0, 0, 0]	n/a	0	1	0	n/a	n/a	0.0	0	0	0	PAL2	0	R1112M
1906.341	5.009	1905679	REC_START	n/a	n/a	n/a	n/a	2	-999	n/a	n/a	0	14	[0, 0, 0]	n/a	0	1	0	n/a	n/a	0.0	0	0	0	PAL2	0	R1112M
1911.35	0.001	1908183	REC_EVENT	5.009	n/a	STONE	RICE	2	2	STONE	<>	0	14	[0, 0, 0]	n/a	0	1	0	n/a	n/a	0.0	0	0	0	PAL2	0	R1112M
1911.351	0.024	1908184	REC_END	n/a	n/a	n/a	n/a	2	-999	n/a	n/a	-999	14	[0, 0, 0]	n/a	0	1	0	n/a	n/a	0.0	0	0	0	PAL2	0	R1112M
1911.375	0.25	1908196	TEST_ORIENT	n/a	n/a	AXE	SKUNK	5	3	AXE	n/a	0	14	[0, 0, 0]	n/a	0	1	0	n/a	n/a	0.0	0	0	0	PAL2	0	R1112M
1912.392	0.0	1908704	REC_START	n/a	n/a	n/a	n/a	5	-999	n/a	n/a	0	14	[0, 0, 0]	n/a	0	1	0	n/a	n/a	0.0	0	0	0	PAL2	0	R1112M
1912.392	4.0	1908704	TEST_PROBE	n/a	wordpools/wordpool_EN.txt	AXE	SKUNK	5	3	AXE	n/a	0	14	[0, 0, 0]	n/a	0	1	0	n/a	n/a	0.0	0	0	0	PAL2	0	R1112M
1917.419	0.0	1911218	REC_EVENT	5.027	n/a	AXE	SKUNK	5	3	AXE	<>	0	14	[0, 0, 0]	n/a	0	1	0	n/a	n/a	0.0	0	0	0	PAL2	0	R1112M
1917.419	0.024	1911218	REC_END	n/a	n/a	n/a	n/a	5	-999	n/a	n/a	-999	14	[0, 0, 0]	n/a	0	1	0	n/a	n/a	0.0	0	0	0	PAL2	0	R1112M
1917.443	0.25	1911230	TEST_ORIENT	n/a	n/a	BREAD	CROW	6	4	CROW	n/a	0	14	[0, 0, 0]	n/a	0	1	0	n/a	n/a	0.0	0	0	0	PAL2	0	R1112M
1918.393	4.0	1911705	TEST_PROBE	n/a	wordpools/wordpool_EN.txt	BREAD	CROW	6	4	CROW	n/a	0	14	[0, 0, 0]	n/a	0	1	0	n/a	n/a	0.0	0	0	0	PAL2	0	R1112M
1918.393	5.015	1911705	REC_START	n/a	n/a	n/a	n/a	6	-999	n/a	n/a	0	14	[0, 0, 0]	n/a	0	1	0	n/a	n/a	0.0	0	0	0	PAL2	0	R1112M
1923.408	0.002	1914212	REC_EVENT	5.015	n/a	BREAD	CROW	6	4	CROW	<>	0	14	[0, 0, 0]	n/a	0	1	0	n/a	n/a	0.0	0	0	0	PAL2	0	R1112M
1923.41	0.017	1914213	REC_END	n/a	n/a	n/a	n/a	6	-999	n/a	n/a	-999	14	[0, 0, 0]	n/a	0	1	0	n/a	n/a	0.0	0	0	0	PAL2	0	R1112M
1923.427	0.25	1914221	TEST_ORIENT	n/a	n/a	ICE	GOLD	3	5	ICE	n/a	0	14	[0, 0, 0]	n/a	0	1	0	n/a	n/a	0.0	0	0	0	PAL2	0	R1112M
1924.427	4.0	1914721	TEST_PROBE	n/a	wordpools/wordpool_EN.txt	ICE	GOLD	3	5	ICE	n/a	0	14	[0, 0, 0]	n/a	0	1	0	n/a	n/a	0.0	0	0	0	PAL2	0	R1112M
1924.428	5.009	1914722	REC_START	n/a	n/a	n/a	n/a	3	-999	n/a	n/a	0	14	[0, 0, 0]	n/a	0	1	0	n/a	n/a	0.0	0	0	0	PAL2	0	R1112M
1929.437	0.001	1917226	REC_EVENT	5.009	n/a	ICE	GOLD	3	5	ICE	<>	0	14	[0, 0, 0]	n/a	0	1	0	n/a	n/a	0.0	0	0	0	PAL2	0	R1112M
1929.438	0.024	1917227	REC_END	n/a	n/a	n/a	n/a	3	-999	n/a	n/a	-999	14	[0, 0, 0]	n/a	0	1	0	n/a	n/a	0.0	0	0	0	PAL2	0	R1112M
1929.462	0.25	1917239	TEST_ORIENT	n/a	n/a	BEACH	SEAT	4	6	BEACH	n/a	0	14	[0, 0, 0]	n/a	0	1	0	n/a	n/a	0.0	0	0	0	PAL2	0	R1112M
1930.429	0.0	1917722	REC_START	n/a	n/a	n/a	n/a	4	-999	n/a	n/a	0	14	[0, 0, 0]	n/a	0	1	0	n/a	n/a	0.0	0	0	0	PAL2	0	R1112M
1930.429	4.0	1917722	TEST_PROBE	n/a	wordpools/wordpool_EN.txt	BEACH	SEAT	4	6	BEACH	n/a	0	14	[0, 0, 0]	n/a	0	1	0	n/a	n/a	0.0	0	0	0	PAL2	0	R1112M
1935.444	0.002	1920230	REC_EVENT	5.015	n/a	BEACH	SEAT	4	6	BEACH	<>	0	14	[0, 0, 0]	n/a	0	1	0	n/a	n/a	0.0	0	0	0	PAL2	0	R1112M
1935.446	13.538	1920231	REC_END	n/a	n/a	n/a	n/a	4	-999	n/a	n/a	-999	14	[0, 0, 0]	n/a	0	1	0	n/a	n/a	0.0	0	0	0	PAL2	0	R1112M
1948.984	10.45	1926999	ENCODING_START	n/a	n/a	n/a	n/a	0	-999	n/a	n/a	-999	15	[0, 0, 0]	n/a	0	1	0	n/a	n/a	0.0	0	0	0	PAL2	0	R1112M
1959.434	0.25	1932224	STUDY_ORIENT	n/a	n/a	MOOSE	HOUSE	1	5	MOOSE	n/a	0	15	[0, 0, 0]	n/a	0	1	0	n/a	n/a	0.0	0	0	0	PAL2	0	R1112M
1960.335	4.0	1932674	STUDY_PAIR	n/a	wordpools/wordpool_EN.txt	MOOSE	HOUSE	1	5	MOOSE	n/a	0	15	[0, 0, 0]	n/a	0	1	0	n/a	n/a	0.0	0	0	0	PAL2	0	R1112M
1965.369	0.25	1935191	STUDY_ORIENT	n/a	n/a	BRUSH	MOTH	2	6	BRUSH	MOTH	1	15	[0, 0, 0]	n/a	0	1	0	n/a	n/a	0.0	0	0	0	PAL2	0	R1112M
1966.064	4.6	1935539	STIM_ON	n/a	n/a	BRUSH	MOTH	2	6	BRUSH	MOTH	1	15	[0, 0, 0]	n/a	1	1	4600	RAD1	RAD2	500.0	50	230	300	PAL2	0	R1112M
1966.269	4.0	1935641	STUDY_PAIR	n/a	wordpools/wordpool_EN.txt	BRUSH	MOTH	2	6	BRUSH	MOTH	1	15	[0, 0, 0]	n/a	1	1	4600	RAD1	RAD2	500.0	50	230	300	PAL2	0	R1112M
1971.303	0.25	1938158	STUDY_ORIENT	n/a	n/a	MOUTH	PIN	3	3	PIN	n/a	0	15	[0, 0, 0]	n/a	0	1	0	n/a	n/a	0.0	0	0	0	PAL2	0	R1112M
1972.154	4.0	1938584	STUDY_PAIR	n/a	wordpools/wordpool_EN.txt	MOUTH	PIN	3	3	PIN	n/a	0	15	[0, 0, 0]	n/a	0	1	0	n/a	n/a	0.0	0	0	0	PAL2	0	R1112M
1977.188	0.25	1941100	STUDY_ORIENT	n/a	n/a	TOOTH	SOAP	4	2	TOOTH	n/a	0	15	[0, 0, 0]	n/a	0	1	0	n/a	n/a	0.0	0	0	0	PAL2	0	R1112M
1977.794	4.6	1941403	STIM_ON	n/a	n/a	TOOTH	SOAP	4	2	TOOTH	n/a	0	15	[0, 0, 0]	n/a	1	1	4600	RAD1	RAD2	500.0	50	230	300	PAL2	0	R1112M
1978.006	4.0	1941509	STUDY_PAIR	n/a	wordpools/wordpool_EN.txt	TOOTH	SOAP	4	2	TOOTH	n/a	0	15	[0, 0, 0]	n/a	1	1	4600	RAD1	RAD2	500.0	50	230	300	PAL2	0	R1112M
1983.04	0.25	1944026	STUDY_ORIENT	n/a	n/a	THUMB	SQUARE	5	1	SQUARE	n/a	0	15	[0, 0, 0]	n/a	0	1	0	n/a	n/a	0.0	0	0	0	PAL2	0	R1112M
1983.94	4.0	1944476	STUDY_PAIR	n/a	wordpools/wordpool_EN.txt	THUMB	SQUARE	5	1	SQUARE	n/a	0	15	[0, 0, 0]	n/a	0	1	0	n/a	n/a	0.0	0	0	0	PAL2	0	R1112M
1988.958	0.25	1946985	STUDY_ORIENT	n/a	n/a	SMOKE	LAKE	6	4	LAKE	n/a	0	15	[0, 0, 0]	n/a	0	1	0	n/a	n/a	0.0	0	0	0	PAL2	0	R1112M
1989.772	4.6	1947392	STIM_ON	n/a	n/a	SMOKE	LAKE	6	4	LAKE	n/a	0	15	[0, 0, 0]	n/a	1	1	4600	RAD1	RAD2	500.0	50	230	300	PAL2	0	R1112M
1989.975	4.0	1947494	STUDY_PAIR	n/a	wordpools/wordpool_EN.txt	SMOKE	LAKE	6	4	LAKE	n/a	0	15	[0, 0, 0]	n/a	1	1	4600	RAD1	RAD2	500.0	50	230	300	PAL2	0	R1112M
1993.993	0.999	1949502	START	n/a	n/a	n/a	n/a	-999	-999	n/a	n/a	-999	15	[-999, -999, -999]	n/a	0	1	0	n/a	n/a	0.0	0	0	0	PAL2	0	R1112M
1994.992	0.017	1950002	MATH_START	n/a	n/a	n/a	n/a	-999	-999	n/a	n/a	-999	15	[0, 0, 0]	n/a	0	1	0	n/a	n/a	0.0	0	0	0	PAL2	0	R1112M
1995.009	14.77	1950010	PROB	14.742	n/a	n/a	n/a	-999	-999	n/a	n/a	-999	15	[7, 9, 7]	23	0	1	0	n/a	n/a	0.0	0	0	0	PAL2	0	R1112M
2009.779	9.572	1957395	PROB	9.572	n/a	n/a	n/a	-999	-999	n/a	n/a	-999	15	[7, 8, 4]	19	0	1	0	n/a	n/a	0.0	0	0	0	PAL2	0	R1112M
2019.351	0.012	1962181	STOP	n/a	n/a	n/a	n/a	-999	-999	n/a	n/a	-999	15	[-999, -999, -999]	n/a	0	1	0	n/a	n/a	0.0	0	0	0	PAL2	0	R1112M
2019.363	0.0	1962187	MATH_END	n/a	n/a	n/a	n/a	-999	-999	n/a	n/a	-999	15	[0, 0, 0]	n/a	0	1	0	n/a	n/a	0.0	0	0	0	PAL2	0	R1112M
2019.363	0.017	1962187	TEST_START	n/a	n/a	n/a	n/a	-999	-999	n/a	n/a	-999	15	[0, 0, 0]	n/a	0	1	0	n/a	n/a	0.0	0	0	0	PAL2	0	R1112M
2019.38	0.25	1962195	TEST_ORIENT	n/a	n/a	THUMB	SQUARE	5	1	SQUARE	n/a	0	15	[0, 0, 0]	n/a	0	1	0	n/a	n/a	0.0	0	0	0	PAL2	0	R1112M
2020.346	4.0	1962678	TEST_PROBE	n/a	wordpools/wordpool_EN.txt	THUMB	SQUARE	5	1	SQUARE	n/a	0	15	[0, 0, 0]	n/a	0	1	0	n/a	n/a	0.0	0	0	0	PAL2	0	R1112M
2020.347	5.009	1962679	REC_START	n/a	n/a	n/a	n/a	5	-999	n/a	n/a	0	15	[0, 0, 0]	n/a	0	1	0	n/a	n/a	0.0	0	0	0	PAL2	0	R1112M
2025.356	0.001	1965183	REC_EVENT	5.009	n/a	THUMB	SQUARE	5	1	SQUARE	<>	0	15	[0, 0, 0]	n/a	0	1	0	n/a	n/a	0.0	0	0	0	PAL2	0	R1112M
2025.357	0.007	1965184	REC_END	n/a	n/a	n/a	n/a	5	-999	n/a	n/a	-999	15	[0, 0, 0]	n/a	0	1	0	n/a	n/a	0.0	0	0	0	PAL2	0	R1112M
2025.364	0.25	1965187	TEST_ORIENT	n/a	n/a	TOOTH	SOAP	4	2	TOOTH	n/a	0	15	[0, 0, 0]	n/a	0	1	0	n/a	n/a	0.0	0	0	0	PAL2	0	R1112M
2026.298	0.0	1965654	REC_START	n/a	n/a	n/a	n/a	4	-999	n/a	n/a	0	15	[0, 0, 0]	n/a	0	1	0	n/a	n/a	0.0	0	0	0	PAL2	0	R1112M
2026.298	4.0	1965654	TEST_PROBE	n/a	wordpools/wordpool_EN.txt	TOOTH	SOAP	4	2	TOOTH	n/a	0	15	[0, 0, 0]	n/a	0	1	0	n/a	n/a	0.0	0	0	0	PAL2	0	R1112M
2031.315	0.004	1968162	REC_END	n/a	n/a	n/a	n/a	4	-999	n/a	n/a	-999	15	[0, 0, 0]	n/a	0	1	0	n/a	n/a	0.0	0	0	0	PAL2	0	R1112M
2031.319	0.013	1968164	REC_EVENT	5.021	n/a	TOOTH	SOAP	4	2	TOOTH	<>	0	15	[0, 0, 0]	n/a	0	1	0	n/a	n/a	0.0	0	0	0	PAL2	0	R1112M
2031.332	0.25	1968171	TEST_ORIENT	n/a	n/a	MOUTH	PIN	3	3	PIN	n/a	0	15	[0, 0, 0]	n/a	0	1	0	n/a	n/a	0.0	0	0	0	PAL2	0	R1112M
2032.299	4.0	1968654	TEST_PROBE	n/a	wordpools/wordpool_EN.txt	MOUTH	PIN	3	3	PIN	n/a	0	15	[0, 0, 0]	n/a	0	1	0	n/a	n/a	0.0	0	0	0	PAL2	0	R1112M
2032.299	5.015	1968654	REC_START	n/a	n/a	n/a	n/a	3	-999	n/a	n/a	0	15	[0, 0, 0]	n/a	0	1	0	n/a	n/a	0.0	0	0	0	PAL2	0	R1112M
2037.314	0.002	1971162	REC_EVENT	5.015	n/a	MOUTH	PIN	3	3	PIN	<>	0	15	[0, 0, 0]	n/a	0	1	0	n/a	n/a	0.0	0	0	0	PAL2	0	R1112M
2037.316	0.017	1971163	REC_END	n/a	n/a	n/a	n/a	3	-999	n/a	n/a	-999	15	[0, 0, 0]	n/a	0	1	0	n/a	n/a	0.0	0	0	0	PAL2	0	R1112M
2037.333	0.25	1971171	TEST_ORIENT	n/a	n/a	SMOKE	LAKE	6	4	LAKE	n/a	0	15	[0, 0, 0]	n/a	0	1	0	n/a	n/a	0.0	0	0	0	PAL2	0	R1112M
