onset	duration	sample	trial_type	response_time	stim_file	study_1	study_2	serialpos	probepos	probe_word	resp_word	correct	list	test	answer	stimulation	stim_list	stim_duration	anode_label	cathode_label	amplitude	pulse_freq	n_pulses	pulse_width	experiment	session	subject
0.0	57.751	159038	SESS_START	n/a	n/a	n/a	n/a	-999	-999	n/a	n/a	-999	-999	[0, 0, 0]	n/a	0	0	0	n/a	n/a	0.0	0	0	0	PAL2	0	R1003P
57.751	1.017	187912	START	n/a	n/a	n/a	n/a	-999	-999	n/a	n/a	-999	-1	[-999, -999, -999]	n/a	0	-999	0	n/a	n/a	0.0	0	0	0	PAL2	0	R1003P
58.768	6.201	188421	PROB	6.176	n/a	n/a	n/a	-999	-999	n/a	n/a	-999	-1	[8, 9, 2]	19	0	-999	0	n/a	n/a	0.0	0	0	0	PAL2	0	R1003P
64.969	5.968	191521	PROB	5.943	n/a	n/a	n/a	-999	-999	n/a	n/a	-999	-1	[2, 9, 8]	19	0	-999	0	n/a	n/a	0.0	0	0	0	PAL2	0	R1003P
70.937	3.801	194505	PROB	3.767	n/a	n/a	n/a	-999	-999	n/a	n/a	-999	-1	[3, 3, 4]	10	0	-999	0	n/a	n/a	0.0	0	0	0	PAL2	0	R1003P
74.738	3.27	196405	PROB	3.27	n/a	n/a	n/a	-999	-999	n/a	n/a	-999	-1	[6, 3, 4]	13	0	-999	0	n/a	n/a	0.0	0	0	0	PAL2	0	R1003P
78.008	38.872	198040	STOP	n/a	n/a	n/a	n/a	-999	-999	n/a	n/a	-999	-1	[-999, -999, -999]	n/a	0	-999	0	n/a	n/a	0.0	0	0	0	PAL2	0	R1003P
116.88	10.451	217475	ENCODING_START	n/a	n/a	n/a	n/a	0	-999	n/a	n/a	-999	1	[0, 0, 0]	n/a	0	0	0	n/a	n/a	0.0	0	0	0	PAL2	0	R1003P
127.331	0.25	222701	STUDY_ORIENT	n/a	n/a	GLASS	JUDGE	1	1	JUDGE	n/a	0	1	[0, 0, 0]	n/a	0	0	0	n/a	n/a	0.0	0	0	0	PAL2	0	R1003P
128.315	4.0	223193	STUDY_PAIR	n/a	wordpools/wordpool_EN.txt	GLASS	JUDGE	1	1	JUDGE	n/a	0	1	[0, 0, 0]	n/a	0	0	0	n/a	n/a	0.0	0	0	0	PAL2	0	R1003P
133.349	0.25	225709	STUDY_ORIENT	n/a	n/a	OWL	STEAK	2	2	OWL	STEAK	1	1	[0, 0, 0]	n/a	0	0	0	n/a	n/a	0.0	0	0	0	PAL2	0	R1003P
134.332	4.0	226201	STUDY_PAIR	n/a	wordpools/wordpool_EN.txt	OWL	STEAK	2	2	OWL	STEAK	1	1	[0, 0, 0]	n/a	0	0	0	n/a	n/a	0.0	0	0	0	PAL2	0	R1003P
139.35	0.25	228710	STUDY_ORIENT	n/a	n/a	FAN	COUCH	3	3	COUCH	SUIT	0	1	[0, 0, 0]	n/a	0	0	0	n/a	n/a	0.0	0	0	0	PAL2	0	R1003P
140.284	4.0	229177	STUDY_PAIR	n/a	wordpools/wordpool_EN.txt	FAN	COUCH	3	3	COUCH	SUIT	0	1	[0, 0, 0]	n/a	0	0	0	n/a	n/a	0.0	0	0	0	PAL2	0	R1003P
145.318	0.25	231694	STUDY_ORIENT	n/a	n/a	PARK	SPRING	4	6	PARK	n/a	0	1	[0, 0, 0]	n/a	0	0	0	n/a	n/a	0.0	0	0	0	PAL2	0	R1003P
146.15	4.0	232110	STUDY_PAIR	n/a	wordpools/wordpool_EN.txt	PARK	SPRING	4	6	PARK	n/a	0	1	[0, 0, 0]	n/a	0	0	0	n/a	n/a	0.0	0	0	0	PAL2	0	R1003P
151.168	0.25	234619	STUDY_ORIENT	n/a	n/a	PALM	WAVE	5	5	PALM	TREE	0	1	[0, 0, 0]	n/a	0	0	0	n/a	n/a	0.0	0	0	0	PAL2	0	R1003P
152.168	4.0	235118	STUDY_PAIR	n/a	wordpools/wordpool_EN.txt	PALM	WAVE	5	5	PALM	TREE	0	1	[0, 0, 0]	n/a	0	0	0	n/a	n/a	0.0	0	0	0	PAL2	0	R1003P
157.187	0.25	237628	STUDY_ORIENT	n/a	n/a	SUIT	SIGN	6	4	SIGN	n/a	0	1	[0, 0, 0]	n/a	0	0	0	n/a	n/a	0.0	0	0	0	PAL2	0	R1003P
158.037	4.0	238053	STUDY_PAIR	n/a	wordpools/wordpool_EN.txt	SUIT	SIGN	6	4	SIGN	n/a	0	1	[0, 0, 0]	n/a	0	0	0	n/a	n/a	0.0	0	0	0	PAL2	0	R1003P
162.055	0.999	240062	START	n/a	n/a	n/a	n/a	-999	-999	n/a	n/a	-999	1	[-999, -999, -999]	n/a	0	0	0	n/a	n/a	0.0	0	0	0	PAL2	0	R1003P
163.054	0.016	240561	MATH_START	n/a	n/a	n/a	n/a	-999	-999	n/a	n/a	-999	1	[0, 0, 0]	n/a	0	0	0	n/a	n/a	0.0	0	0	0	PAL2	0	R1003P
163.07	3.602	240569	PROB	3.57	n/a	n/a	n/a	-999	-999	n/a	n/a	-999	1	[1, 8, 9]	18	0	0	0	n/a	n/a	0.0	0	0	0	PAL2	0	R1003P
166.672	9.568	242370	PROB	9.544	n/a	n/a	n/a	-999	-999	n/a	n/a	-999	1	[9, 7, 8]	24	0	0	0	n/a	n/a	0.0	0	0	0	PAL2	0	R1003P
176.24	3.068	247154	PROB	3.04	n/a	n/a	n/a	-999	-999	n/a	n/a	-999	1	[7, 3, 4]	14	0	0	0	n/a	n/a	0.0	0	0	0	PAL2	0	R1003P
179.308	2.819	248688	PROB	2.819	n/a	n/a	n/a	-999	-999	n/a	n/a	-999	1	[1, 1, 7]	9	0	0	0	n/a	n/a	0.0	0	0	0	PAL2	0	R1003P
182.127	0.014	250097	STOP	n/a	n/a	n/a	n/a	-999	-999	n/a	n/a	-999	1	[-999, -999, -999]	n/a	0	0	0	n/a	n/a	0.0	0	0	0	PAL2	0	R1003P
182.141	0.0	250104	MATH_END	n/a	n/a	n/a	n/a	-999	-999	n/a	n/a	-999	1	[0, 0, 0]	n/a	0	0	0	n/a	n/a	0.0	0	0	0	PAL2	0	R1003P
182.141	0.016	250104	TEST_START	n/a	n/a	n/a	n/a	-999	-999	n/a	n/a	-999	1	[0, 0, 0]	n/a	0	0	0	n/a	n/a	0.0	0	0	0	PAL2	0	R1003P
182.157	0.25	250112	TEST_ORIENT	n/a	n/a	GLASS	JUDGE	1	1	JUDGE	n/a	0	1	[0, 0, 0]	n/a	0	0	0	n/a	n/a	0.0	0	0	0	PAL2	0	R1003P
182.975	4.0	250521	TEST_PROBE	n/a	wordpools/wordpool_EN.txt	GLASS	JUDGE	1	1	JUDGE	n/a	0	1	[0, 0, 0]	n/a	0	0	0	n/a	n/a	0.0	0	0	0	PAL2	0	R1003P
182.976	5.016	250522	REC_START	n/a	n/a	n/a	n/a	1	-999	n/a	n/a	0	1	[0, 0, 0]	n/a	0	0	0	n/a	n/a	0.0	0	0	0	PAL2	0	R1003P
187.992	0.005	253030	REC_END	n/a	n/a	n/a	n/a	1	-999	n/a	n/a	-999	1	[0, 0, 0]	n/a	0	0	0	n/a	n/a	0.0	0	0	0	PAL2	0	R1003P
187.997	0.012	253032	REC_EVENT	5.021	n/a	GLASS	JUDGE	1	1	JUDGE	<>	0	1	[0, 0, 0]	n/a	0	0	0	n/a	n/a	0.0	0	0	0	PAL2	0	R1003P
188.009	0.25	253038	TEST_ORIENT	n/a	n/a	OWL	STEAK	2	2	OWL	STEAK	1	1	[0, 0, 0]	n/a	0	0	0	n/a	n/a	0.0	0	0	0	PAL2	0	R1003P
188.826	4.0	253447	TEST_PROBE	n/a	wordpools/wordpool_EN.txt	OWL	STEAK	2	2	OWL	STEAK	1	1	[0, 0, 0]	n/a	0	0	0	n/a	n/a	0.0	0	0	0	PAL2	0	R1003P
188.827	1.168	253447	REC_START	n/a	n/a	n/a	n/a	2	-999	n/a	STEAK	1	1	[0, 0, 0]	n/a	0	0	0	n/a	n/a	0.0	0	0	0	PAL2	0	R1003P
189.995	3.84	254031	REC_EVENT	1.168	n/a	OWL	STEAK	2	2	OWL	STEAK	1	1	[0, 0, 0]	n/a	0	0	0	n/a	n/a	0.0	0	0	0	PAL2	0	R1003P
193.835	0.009	255951	REC_END	n/a	n/a	n/a	n/a	2	-999	n/a	n/a	-999	1	[0, 0, 0]	n/a	0	0	0	n/a	n/a	0.0	0	0	0	PAL2	0	R1003P
193.844	0.25	255955	TEST_ORIENT	n/a	n/a	FAN	COUCH	3	3	COUCH	SUIT	0	1	[0, 0, 0]	n/a	0	0	0	n/a	n/a	0.0	0	0	0	PAL2	0	R1003P
194.861	4.0	256464	TEST_PROBE	n/a	wordpools/wordpool_EN.txt	FAN	COUCH	3	3	COUCH	SUIT	0	1	[0, 0, 0]	n/a	0	0	0	n/a	n/a	0.0	0	0	0	PAL2	0	R1003P
194.861	1.6	256464	REC_START	n/a	n/a	n/a	n/a	3	-999	n/a	SUIT	0	1	[0, 0, 0]	n/a	0	0	0	n/a	n/a	0.0	0	0	0	PAL2	0	R1003P
196.461	3.417	257264	REC_EVENT	1.6	n/a	FAN	COUCH	3	3	COUCH	SUIT	0	1	[0, 0, 0]	n/a	0	0	0	n/a	n/a	0.0	0	0	0	PAL2	0	R1003P
199.878	0.017	258972	REC_END	n/a	n/a	n/a	n/a	3	-999	n/a	n/a	-999	1	[0, 0, 0]	n/a	0	0	0	n/a	n/a	0.0	0	0	0	PAL2	0	R1003P
199.895	0.25	258981	TEST_ORIENT	n/a	n/a	SUIT	SIGN	6	4	SIGN	n/a	0	1	[0, 0, 0]	n/a	0	0	0	n/a	n/a	0.0	0	0	0	PAL2	0	R1003P
200.695	4.0	259381	TEST_PROBE	n/a	wordpools/wordpool_EN.txt	SUIT	SIGN	6	4	SIGN	n/a	0	1	[0, 0, 0]	n/a	0	0	0	n/a	n/a	0.0	0	0	0	PAL2	0	R1003P
200.695	5.015	259381	REC_START	n/a	n/a	n/a	n/a	6	-999	n/a	n/a	0	1	[0, 0, 0]	n/a	0	0	0	n/a	n/a	0.0	0	0	0	PAL2	0	R1003P
205.71	0.003	261888	REC_EVENT	5.015	n/a	SUIT	SIGN	6	4	SIGN	<>	0	1	[0, 0, 0]	n/a	0	0	0	n/a	n/a	0.0	0	0	0	PAL2	0	R1003P
205.713	0.016	261890	REC_END	n/a	n/a	n/a	n/a	6	-999	n/a	n/a	-999	1	[0, 0, 0]	n/a	0	0	0	n/a	n/a	0.0	0	0	0	PAL2	0	R1003P
205.729	0.25	261898	TEST_ORIENT	n/a	n/a	PALM	WAVE	5	5	PALM	TREE	0	1	[0, 0, 0]	n/a	0	0	0	n/a	n/a	0.0	0	0	0	PAL2	0	R1003P
206.696	4.0	262381	TEST_PROBE	n/a	wordpools/wordpool_EN.txt	PALM	WAVE	5	5	PALM	TREE	0	1	[0, 0, 0]	n/a	0	0	0	n/a	n/a	0.0	0	0	0	PAL2	0	R1003P
206.697	1.386	262382	REC_START	n/a	n/a	n/a	n/a	5	-999	n/a	TREE	0	1	[0, 0, 0]	n/a	0	0	0	n/a	n/a	0.0	0	0	0	PAL2	0	R1003P
208.083	3.622	263075	REC_EVENT	1.386	n/a	PALM	WAVE	5	5	PALM	TREE	0	1	[0, 0, 0]	n/a	0	0	0	n/a	n/a	0.0	0	0	0	PAL2	0	R1003P
211.705	0.009	264885	REC_END	n/a	n/a	n/a	n/a	5	-999	n/a	n/a	-999	1	[0, 0, 0]	n/a	0	0	0	n/a	n/a	0.0	0	0	0	PAL2	0	R1003P
211.714	0.25	264890	TEST_ORIENT	n/a	n/a	PARK	SPRING	4	6	PARK	n/a	0	1	[0, 0, 0]	n/a	0	0	0	n/a	n/a	0.0	0	0	0	PAL2	0	R1003P
212.614	4.0	265340	TEST_PROBE	n/a	wordpools/wordpool_EN.txt	PARK	SPRING	4	6	PARK	n/a	0	1	[0, 0, 0]	n/a	0	0	0	n/a	n/a	0.0	0	0	0	PAL2	0	R1003P
212.614	5.015	265340	REC_START	n/a	n/a	n/a	n/a	4	-999	n/a	n/a	0	1	[0, 0, 0]	n/a	0	0	0	n/a	n/a	0.0	0	0	0	PAL2	0	R1003P
217.629	0.003	267847	REC_EVENT	5.015	n/a	PARK	SPRING	4	6	PARK	<>	0	1	[0, 0, 0]	n/a	0	0	0	n/a	n/a	0.0	0	0	0	PAL2	0	R1003P
217.632	0.928	267849	REC_END	n/a	n/a	n/a	n/a	4	-999	n/a	n/a	-999	1	[0, 0, 0]	n/a	0	0	0	n/a	n/a	0.0	0	0	0	PAL2	0	R1003P
218.56	10.441	268313	ENCODING_START	n/a	n/a	n/a	n/a	0	-999	n/a	n/a	-999	2	[0, 0, 0]	n/a	0	1	0	n/a	n/a	0.0	0	0	0	PAL2	0	R1003P
229.001	0.25	273533	STUDY_ORIENT	n/a	n/a	SOAP	SHEEP	1	1	SOAP	n/a	0	2	[0, 0, 0]	n/a	0	1	0	n/a	n/a	0.0	0	0	0	PAL2	0	R1003P
229.745	4.6	273905	STIM_ON	n/a	n/a	SOAP	SHEEP	1	1	SOAP	n/a	0	2	[0, 0, 0]	n/a	1	1	4600	DA1	DA2	1500.0	50	230	300	PAL2	0	R1003P
229.951	4.0	274008	STUDY_PAIR	n/a	wordpools/wordpool_EN.txt	SOAP	SHEEP	1	1	SOAP	n/a	0	2	[0, 0, 0]	n/a	1	1	4600	DA1	DA2	1500.0	50	230	300	PAL2	0	R1003P
234.985	0.25	276525	STUDY_ORIENT	n/a	n/a	FISH	GUARD	2	4	GUARD	n/a	0	2	[0, 0, 0]	n/a	0	1	0	n/a	n/a	0.0	0	0	0	PAL2	0	R1003P
235.852	4.0	276958	STUDY_PAIR	n/a	wordpools/wordpool_EN.txt	FISH	GUARD	2	4	GUARD	n/a	0	2	[0, 0, 0]	n/a	0	1	0	n/a	n/a	0.0	0	0	0	PAL2	0	R1003P
240.886	0.25	279475	STUDY_ORIENT	n/a	n/a	FOOD	LAMB	3	5	LAMB	n/a	0	2	[0, 0, 0]	n/a	0	1	0	n/a	n/a	0.0	0	0	0	PAL2	0	R1003P
241.591	4.6	279828	STIM_ON	n/a	n/a	FOOD	LAMB	3	5	LAMB	n/a	0	2	[0, 0, 0]	n/a	1	1	4600	DA1	DA2	1500.0	50	230	300	PAL2	0	R1003P
241.803	4.0	279934	STUDY_PAIR	n/a	wordpools/wordpool_EN.txt	FOOD	LAMB	3	5	LAMB	n/a	0	2	[0, 0, 0]	n/a	1	1	4600	DA1	DA2	1500.0	50	230	300	PAL2	0	R1003P
246.837	0.25	282451	STUDY_ORIENT	n/a	n/a	PEAR	HORN	4	6	PEAR	n/a	0	2	[0, 0, 0]	n/a	0	1	0	n/a	n/a	0.0	0	0	0	PAL2	0	R1003P
247.804	4.0	282934	STUDY_PAIR	n/a	wordpools/wordpool_EN.txt	PEAR	HORN	4	6	PEAR	n/a	0	2	[0, 0, 0]	n/a	0	1	0	n/a	n/a	0.0	0	0	0	PAL2	0	R1003P
252.822	0.25	285443	STUDY_ORIENT	n/a	n/a	DIME	SHELL	5	3	SHELL	FISH	0	2	[0, 0, 0]	n/a	0	1	0	n/a	n/a	0.0	0	0	0	PAL2	0	R1003P
253.48	4.6	285772	STIM_ON	n/a	n/a	DIME	SHELL	5	3	SHELL	FISH	0	2	[0, 0, 0]	n/a	1	1	4600	DA1	DA2	1500.0	50	230	300	PAL2	0	R1003P
253.689	4.0	285876	STUDY_PAIR	n/a	wordpools/wordpool_EN.txt	DIME	SHELL	5	3	SHELL	FISH	0	2	[0, 0, 0]	n/a	1	1	4600	DA1	DA2	1500.0	50	230	300	PAL2	0	R1003P
258.723	0.25	288393	STUDY_ORIENT	n/a	n/a	FOAM	WALL	6	2	WALL	n/a	0	2	[0, 0, 0]	n/a	0	1	0	n/a	n/a	0.0	0	0	0	PAL2	0	R1003P
259.557	4.0	288810	STUDY_PAIR	n/a	wordpools/wordpool_EN.txt	FOAM	WALL	6	2	WALL	n/a	0	2	[0, 0, 0]	n/a	0	1	0	n/a	n/a	0.0	0	0	0	PAL2	0	R1003P
263.575	0.999	290819	START	n/a	n/a	n/a	n/a	-999	-999	n/a	n/a	-999	2	[-999, -999, -999]	n/a	0	1	0	n/a	n/a	0.0	0	0	0	PAL2	0	R1003P
264.574	0.017	291319	MATH_START	n/a	n/a	n/a	n/a	-999	-999	n/a	n/a	-999	2	[0, 0, 0]	n/a	0	1	0	n/a	n/a	0.0	0	0	0	PAL2	0	R1003P
264.591	3.25	291327	PROB	3.217	n/a	n/a	n/a	-999	-999	n/a	n/a	-999	2	[2, 3, 3]	8	0	1	0	n/a	n/a	0.0	0	0	0	PAL2	0	R1003P
267.841	3.701	292952	PROB	3.679	n/a	n/a	n/a	-999	-999	n/a	n/a	-999	2	[3, 7, 8]	18	0	1	0	n/a	n/a	0.0	0	0	0	PAL2	0	R1003P
271.542	4.884	294802	PROB	4.858	n/a	n/a	n/a	-999	-999	n/a	n/a	-999	2	[3, 3, 8]	14	0	1	0	n/a	n/a	0.0	0	0	0	PAL2	0	R1003P
276.426	4.568	297244	PROB	4.534	n/a	n/a	n/a	-999	-999	n/a	n/a	-999	2	[7, 9, 9]	25	0	1	0	n/a	n/a	0.0	0	0	0	PAL2	0	R1003P
280.994	2.334	299528	PROB	2.302	n/a	n/a	n/a	-999	-999	n/a	n/a	-999	2	[4, 4, 1]	9	0	1	0	n/a	n/a	0.0	0	0	0	PAL2	0	R1003P
283.328	3.168	300695	PROB	3.168	n/a	n/a	n/a	-999	-999	n/a	n/a	-999	2	[3, 4, 3]	10	0	1	0	n/a	n/a	0.0	0	0	0	PAL2	0	R1003P
286.496	0.016	302279	STOP	n/a	n/a	n/a	n/a	-999	-999	n/a	n/a	-999	2	[-999, -999, -999]	n/a	0	1	0	n/a	n/a	0.0	0	0	0	PAL2	0	R1003P
286.512	0.0	302287	MATH_END	n/a	n/a	n/a	n/a	-999	-999	n/a	n/a	-999	2	[0, 0, 0]	n/a	0	1	0	n/a	n/a	0.0	0	0	0	PAL2	0	R1003P
286.512	0.016	302287	TEST_START	n/a	n/a	n/a	n/a	-999	-999	n/a	n/a	-999	2	[0, 0, 0]	n/a	0	1	0	n/a	n/a	0.0	0	0	0	PAL2	0	R1003P
286.528	0.25	302295	TEST_ORIENT	n/a	n/a	SOAP	SHEEP	1	1	SOAP	n/a	0	2	[0, 0, 0]	n/a	0	1	0	n/a	n/a	0.0	0	0	0	PAL2	0	R1003P
287.362	4.0	302712	TEST_PROBE	n/a	wordpools/wordpool_EN.txt	SOAP	SHEEP	1	1	SOAP	n/a	0	2	[0, 0, 0]	n/a	0	1	0	n/a	n/a	0.0	0	0	0	PAL2	0	R1003P
287.362	5.015	302712	REC_START	n/a	n/a	n/a	n/a	1	-999	n/a	n/a	0	2	[0, 0, 0]	n/a	0	1	0	n/a	n/a	0.0	0	0	0	PAL2	0	R1003P
292.377	0.002	305219	REC_EVENT	5.015	n/a	SOAP	SHEEP	1	1	SOAP	<>	0	2	[0, 0, 0]	n/a	0	1	0	n/a	n/a	0.0	0	0	0	PAL2	0	R1003P
292.379	0.017	305220	REC_END	n/a	n/a	n/a	n/a	1	-999	n/a	n/a	-999	2	[0, 0, 0]	n/a	0	1	0	n/a	n/a	0.0	0	0	0	PAL2	0	R1003P
292.396	0.25	305229	TEST_ORIENT	n/a	n/a	FOAM	WALL	6	2	WALL	n/a	0	2	[0, 0, 0]	n/a	0	1	0	n/a	n/a	0.0	0	0	0	PAL2	0	R1003P
293.246	4.0	305654	TEST_PROBE	n/a	wordpools/wordpool_EN.txt	FOAM	WALL	6	2	WALL	n/a	0	2	[0, 0, 0]	n/a	0	1	0	n/a	n/a	0.0	0	0	0	PAL2	0	R1003P
293.247	5.017	305654	REC_START	n/a	n/a	n/a	n/a	6	-999	n/a	n/a	0	2	[0, 0, 0]	n/a	0	1	0	n/a	n/a	0.0	0	0	0	PAL2	0	R1003P
298.264	0.004	308163	REC_END	n/a	n/a	n/a	n/a	6	-999	n/a	n/a	-999	2	[0, 0, 0]	n/a	0	1	0	n/a	n/a	0.0	0	0	0	PAL2	0	R1003P
298.268	0.013	308165	REC_EVENT	5.021	n/a	FOAM	WALL	6	2	WALL	<>	0	2	[0, 0, 0]	n/a	0	1	0	n/a	n/a	0.0	0	0	0	PAL2	0	R1003P
298.281	0.25	308171	TEST_ORIENT	n/a	n/a	DIME	SHELL	5	3	SHELL	FISH	0	2	[0, 0, 0]	n/a	0	1	0	n/a	n/a	0.0	0	0	0	PAL2	0	R1003P
299.314	4.0	308688	TEST_PROBE	n/a	wordpools/wordpool_EN.txt	DIME	SHELL	5	3	SHELL	FISH	0	2	[0, 0, 0]	n/a	0	1	0	n/a	n/a	0.0	0	0	0	PAL2	0	R1003P
299.315	1.908	308688	REC_START	n/a	n/a	n/a	n/a	5	-999	n/a	FISH	0	2	[0, 0, 0]	n/a	0	1	0	n/a	n/a	0.0	0	0	0	PAL2	0	R1003P
301.223	3.1	309642	REC_EVENT	1.908	n/a	DIME	SHELL	5	3	SHELL	FISH	0	2	[0, 0, 0]	n/a	0	1	0	n/a	n/a	0.0	0	0	0	PAL2	0	R1003P
304.323	0.009	311192	REC_END	n/a	n/a	n/a	n/a	5	-999	n/a	n/a	-999	2	[0, 0, 0]	n/a	0	1	0	n/a	n/a	0.0	0	0	0	PAL2	0	R1003P
304.332	0.25	311197	TEST_ORIENT	n/a	n/a	FISH	GUARD	2	4	GUARD	n/a	0	2	[0, 0, 0]	n/a	0	1	0	n/a	n/a	0.0	0	0	0	PAL2	0	R1003P
305.349	4.0	311705	TEST_PROBE	n/a	wordpools/wordpool_EN.txt	FISH	GUARD	2	4	GUARD	n/a	0	2	[0, 0, 0]	n/a	0	1	0	n/a	n/a	0.0	0	0	0	PAL2	0	R1003P
305.349	5.015	311705	REC_START	n/a	n/a	n/a	n/a	2	-999	n/a	n/a	0	2	[0, 0, 0]	n/a	0	1	0	n/a	n/a	0.0	0	0	0	PAL2	0	R1003P
310.364	0.002	314212	REC_EVENT	5.015	n/a	FISH	GUARD	2	4	GUARD	<>	0	2	[0, 0, 0]	n/a	0	1	0	n/a	n/a	0.0	0	0	0	PAL2	0	R1003P
310.366	0.017	314213	REC_END	n/a	n/a	n/a	n/a	2	-999	n/a	n/a	-999	2	[0, 0, 0]	n/a	0	1	0	n/a	n/a	0.0	0	0	0	PAL2	0	R1003P
310.383	0.25	314222	TEST_ORIENT	n/a	n/a	FOOD	LAMB	3	5	LAMB	n/a	0	2	[0, 0, 0]	n/a	0	1	0	n/a	n/a	0.0	0	0	0	PAL2	0	R1003P
311.283	4.0	314672	TEST_PROBE	n/a	wordpools/wordpool_EN.txt	FOOD	LAMB	3	5	LAMB	n/a	0	2	[0, 0, 0]	n/a	0	1	0	n/a	n/a	0.0	0	0	0	PAL2	0	R1003P
311.284	5.021	314672	REC_START	n/a	n/a	n/a	n/a	3	-999	n/a	n/a	0	2	[0, 0, 0]	n/a	0	1	0	n/a	n/a	0.0	0	0	0	PAL2	0	R1003P
316.305	0.004	317183	REC_EVENT	5.021	n/a	FOOD	LAMB	3	5	LAMB	<>	0	2	[0, 0, 0]	n/a	0	1	0	n/a	n/a	0.0	0	0	0	PAL2	0	R1003P
316.309	0.008	317185	REC_END	n/a	n/a	n/a	n/a	3	-999	n/a	n/a	-999	2	[0, 0, 0]	n/a	0	1	0	n/a	n/a	0.0	0	0	0	PAL2	0	R1003P
316.317	0.25	317189	TEST_ORIENT	n/a	n/a	PEAR	HORN	4	6	PEAR	n/a	0	2	[0, 0, 0]	n/a	0	1	0	n/a	n/a	0.0	0	0	0	PAL2	0	R1003P
317.334	4.0	317697	TEST_PROBE	n/a	wordpools/wordpool_EN.txt	PEAR	HORN	4	6	PEAR	n/a	0	2	[0, 0, 0]	n/a	0	1	0	n/a	n/a	0.0	0	0	0	PAL2	0	R1003P
317.335	4.998	317698	REC_START	n/a	n/a	n/a	n/a	4	-999	n/a	n/a	0	2	[0, 0, 0]	n/a	0	1	0	n/a	n/a	0.0	0	0	0	PAL2	0	R1003P
322.333	0.002	320197	REC_EVENT	4.998	n/a	PEAR	HORN	4	6	PEAR	<>	0	2	[0, 0, 0]	n/a	0	1	0	n/a	n/a	0.0	0	0	0	PAL2	0	R1003P
322.335	1.049	320198	REC_END	n/a	n/a	n/a	n/a	4	-999	n/a	n/a	-999	2	[0, 0, 0]	n/a	0	1	0	n/a	n/a	0.0	0	0	0	PAL2	0	R1003P
323.384	10.453	320722	ENCODING_START	n/a	n/a	n/a	n/a	0	-999	n/a	n/a	-999	3	[0, 0, 0]	n/a	0	1	0	n/a	n/a	0.0	0	0	0	PAL2	0	R1003P
333.837	0.25	325948	STUDY_ORIENT	n/a	n/a	SPEAR	TRAIN	1	5	SPEAR	PIT	0	3	[0, 0, 0]	n/a	0	1	0	n/a	n/a	0.0	0	0	0	PAL2	0	R1003P
334.704	4.0	326382	STUDY_PAIR	n/a	wordpools/wordpool_EN.txt	SPEAR	TRAIN	1	5	SPEAR	PIT	0	3	[0, 0, 0]	n/a	0	1	0	n/a	n/a	0.0	0	0	0	PAL2	0	R1003P
339.722	0.25	328891	STUDY_ORIENT	n/a	n/a	POLE	PIT	2	4	POLE	n/a	0	3	[0, 0, 0]	n/a	0	1	0	n/a	n/a	0.0	0	0	0	PAL2	0	R1003P
340.555	4.0	329307	STUDY_PAIR	n/a	wordpools/wordpool_EN.txt	POLE	PIT	2	4	POLE	n/a	0	3	[0, 0, 0]	n/a	0	1	0	n/a	n/a	0.0	0	0	0	PAL2	0	R1003P
345.573	0.25	331816	STUDY_ORIENT	n/a	n/a	GEESE	YARD	3	1	YARD	PIT	0	3	[0, 0, 0]	n/a	0	1	0	n/a	n/a	0.0	0	0	0	PAL2	0	R1003P
346.557	4.0	332308	STUDY_PAIR	n/a	wordpools/wordpool_EN.txt	GEESE	YARD	3	1	YARD	PIT	0	3	[0, 0, 0]	n/a	0	1	0	n/a	n/a	0.0	0	0	0	PAL2	0	R1003P
351.591	0.25	334825	STUDY_ORIENT	n/a	n/a	GRASS	SKY	4	6	GRASS	n/a	0	3	[0, 0, 0]	n/a	0	1	0	n/a	n/a	0.0	0	0	0	PAL2	0	R1003P
352.374	4.0	335216	STUDY_PAIR	n/a	wordpools/wordpool_EN.txt	GRASS	SKY	4	6	GRASS	n/a	0	3	[0, 0, 0]	n/a	0	1	0	n/a	n/a	0.0	0	0	0	PAL2	0	R1003P
357.392	0.25	337725	STUDY_ORIENT	n/a	n/a	BRUSH	JEEP	5	3	JEEP	n/a	0	3	[0, 0, 0]	n/a	0	1	0	n/a	n/a	0.0	0	0	0	PAL2	0	R1003P
358.326	4.0	338192	STUDY_PAIR	n/a	wordpools/wordpool_EN.txt	BRUSH	JEEP	5	3	JEEP	n/a	0	3	[0, 0, 0]	n/a	0	1	0	n/a	n/a	0.0	0	0	0	PAL2	0	R1003P
363.36	0.25	340709	STUDY_ORIENT	n/a	n/a	WEED	WOOD	6	2	WOOD	WEED	1	3	[0, 0, 0]	n/a	0	1	0	n/a	n/a	0.0	0	0	0	PAL2	0	R1003P
364.327	4.0	341193	STUDY_PAIR	n/a	wordpools/wordpool_EN.txt	WEED	WOOD	6	2	WOOD	WEED	1	3	[0, 0, 0]	n/a	0	1	0	n/a	n/a	0.0	0	0	0	PAL2	0	R1003P
368.345	0.999	343201	START	n/a	n/a	n/a	n/a	-999	-999	n/a	n/a	-999	3	[-999, -999, -999]	n/a	0	1	0	n/a	n/a	0.0	0	0	0	PAL2	0	R1003P
369.344	0.017	343701	MATH_START	n/a	n/a	n/a	n/a	-999	-999	n/a	n/a	-999	3	[0, 0, 0]	n/a	0	1	0	n/a	n/a	0.0	0	0	0	PAL2	0	R1003P
369.361	2.783	343709	PROB	2.75	n/a	n/a	n/a	-999	-999	n/a	n/a	-999	3	[5, 6, 4]	15	0	1	0	n/a	n/a	0.0	0	0	0	PAL2	0	R1003P
372.144	3.068	345101	PROB	3.04	n/a	n/a	n/a	-999	-999	n/a	n/a	-999	3	[5, 4, 2]	11	0	1	0	n/a	n/a	0.0	0	0	0	PAL2	0	R1003P
375.212	3.883	346635	PROB	3.859	n/a	n/a	n/a	-999	-999	n/a	n/a	-999	3	[2, 7, 4]	13	0	1	0	n/a	n/a	0.0	0	0	0	PAL2	0	R1003P
379.095	3.335	348576	PROB	3.305	n/a	n/a	n/a	-999	-999	n/a	n/a	-999	3	[7, 5, 3]	15	0	1	0	n/a	n/a	0.0	0	0	0	PAL2	0	R1003P
382.43	5.768	350244	PROB	5.737	n/a	n/a	n/a	-999	-999	n/a	n/a	-999	3	[9, 9, 7]	25	0	1	0	n/a	n/a	0.0	0	0	0	PAL2	0	R1003P
388.198	2.138	353127	PROB	2.138	n/a	n/a	n/a	-999	-999	n/a	n/a	-999	3	[4, 4, 1]	9	0	1	0	n/a	n/a	0.0	0	0	0	PAL2	0	R1003P
390.336	0.012	354196	STOP	n/a	n/a	n/a	n/a	-999	-999	n/a	n/a	-999	3	[-999, -999, -999]	n/a	0	1	0	n/a	n/a	0.0	0	0	0	PAL2	0	R1003P
390.348	0.0	354202	MATH_END	n/a	n/a	n/a	n/a	-999	-999	n/a	n/a	-999	3	[0, 0, 0]	n/a	0	1	0	n/a	n/a	0.0	0	0	0	PAL2	0	R1003P
390.348	0.017	354202	TEST_START	n/a	n/a	n/a	n/a	-999	-999	n/a	n/a	-999	3	[0, 0, 0]	n/a	0	1	0	n/a	n/a	0.0	0	0	0	PAL2	0	R1003P
390.365	0.25	354211	TEST_ORIENT	n/a	n/a	GEESE	YARD	3	1	YARD	PIT	0	3	[0, 0, 0]	n/a	0	1	0	n/a	n/a	0.0	0	0	0	PAL2	0	R1003P
391.114	4.6	354585	STIM_ON	n/a	n/a	GEESE	YARD	3	1	YARD	PIT	0	3	[0, 0, 0]	n/a	1	1	4600	DA1	DA2	1500.0	50	230	300	PAL2	0	R1003P
391.315	4.0	354686	TEST_PROBE	n/a	wordpools/wordpool_EN.txt	GEESE	YARD	3	1	YARD	PIT	0	3	[0, 0, 0]	n/a	1	1	4600	DA1	DA2	1500.0	50	230	300	PAL2	0	R1003P
391.316	2.434	354686	REC_START	n/a	n/a	n/a	n/a	3	-999	n/a	PIT	0	3	[0, 0, 0]	n/a	1	1	4600	DA1	DA2	1500.0	50	230	300	PAL2	0	R1003P
393.75	2.566	355903	REC_EVENT	2.434	n/a	GEESE	YARD	3	1	YARD	PIT	0	3	[0, 0, 0]	n/a	1	1	4600	DA1	DA2	1500.0	50	230	300	PAL2	0	R1003P
396.316	0.017	357186	REC_END	n/a	n/a	n/a	n/a	3	-999	n/a	n/a	-999	3	[0, 0, 0]	n/a	0	1	0	n/a	n/a	0.0	0	0	0	PAL2	0	R1003P
396.333	0.25	357195	TEST_ORIENT	n/a	n/a	WEED	WOOD	6	2	WOOD	WEED	1	3	[0, 0, 0]	n/a	0	1	0	n/a	n/a	0.0	0	0	0	PAL2	0	R1003P
397.35	0.0	357703	REC_START	n/a	n/a	n/a	n/a	6	-999	n/a	WEED	1	3	[0, 0, 0]	n/a	0	1	0	n/a	n/a	0.0	0	0	0	PAL2	0	R1003P
397.35	4.0	357703	TEST_PROBE	n/a	wordpools/wordpool_EN.txt	WEED	WOOD	6	2	WOOD	WEED	1	3	[0, 0, 0]	n/a	0	1	0	n/a	n/a	0.0	0	0	0	PAL2	0	R1003P
399.064	3.303	358560	REC_EVENT	1.714	n/a	WEED	WOOD	6	2	WOOD	WEED	1	3	[0, 0, 0]	n/a	0	1	0	n/a	n/a	0.0	0	0	0	PAL2	0	R1003P
402.367	0.017	360212	REC_END	n/a	n/a	n/a	n/a	6	-999	n/a	n/a	-999	3	[0, 0, 0]	n/a	0	1	0	n/a	n/a	0.0	0	0	0	PAL2	0	R1003P
402.384	0.25	360220	TEST_ORIENT	n/a	n/a	BRUSH	JEEP	5	3	JEEP	n/a	0	3	[0, 0, 0]	n/a	0	1	0	n/a	n/a	0.0	0	0	0	PAL2	0	R1003P
403.097	4.6	360577	STIM_ON	n/a	n/a	BRUSH	JEEP	5	3	JEEP	n/a	0	3	[0, 0, 0]	n/a	1	1	4600	DA1	DA2	1500.0	50	230	300	PAL2	0	R1003P
403.301	4.0	360679	TEST_PROBE	n/a	wordpools/wordpool_EN.txt	BRUSH	JEEP	5	3	JEEP	n/a	0	3	[0, 0, 0]	n/a	1	1	4600	DA1	DA2	1500.0	50	230	300	PAL2	0	R1003P
403.301	5.015	360679	REC_START	n/a	n/a	n/a	n/a	5	-999	n/a	n/a	0	3	[0, 0, 0]	n/a	1	1	4600	DA1	DA2	1500.0	50	230	300	PAL2	0	R1003P
408.316	0.002	363186	REC_EVENT	5.015	n/a	BRUSH	JEEP	5	3	JEEP	<>	0	3	[0, 0, 0]	n/a	0	1	0	n/a	n/a	0.0	0	0	0	PAL2	0	R1003P
408.318	0.017	363187	REC_END	n/a	n/a	n/a	n/a	5	-999	n/a	n/a	-999	3	[0, 0, 0]	n/a	0	1	0	n/a	n/a	0.0	0	0	0	PAL2	0	R1003P
408.335	0.25	363195	TEST_ORIENT	n/a	n/a	POLE	PIT	2	4	POLE	n/a	0	3	[0, 0, 0]	n/a	0	1	0	n/a	n/a	0.0	0	0	0	PAL2	0	R1003P
409.352	4.0	363704	TEST_PROBE	n/a	wordpools/wordpool_EN.txt	POLE	PIT	2	4	POLE	n/a	0	3	[0, 0, 0]	n/a	0	1	0	n/a	n/a	0.0	0	0	0	PAL2	0	R1003P
409.353	5.015	363704	REC_START	n/a	n/a	n/a	n/a	2	-999	n/a	n/a	0	3	[0, 0, 0]	n/a	0	1	0	n/a	n/a	0.0	0	0	0	PAL2	0	R1003P
414.368	0.001	366212	REC_EVENT	5.015	n/a	POLE	PIT	2	4	POLE	<>	0	3	[0, 0, 0]	n/a	0	1	0	n/a	n/a	0.0	0	0	0	PAL2	0	R1003P
414.369	0.017	366212	REC_END	n/a	n/a	n/a	n/a	2	-999	n/a	n/a	-999	3	[0, 0, 0]	n/a	0	1	0	n/a	n/a	0.0	0	0	0	PAL2	0	R1003P
414.386	0.25	366221	TEST_ORIENT	n/a	n/a	SPEAR	TRAIN	1	5	SPEAR	PIT	0	3	[0, 0, 0]	n/a	0	1	0	n/a	n/a	0.0	0	0	0	PAL2	0	R1003P
415.048	4.6	366552	STIM_ON	n/a	n/a	SPEAR	TRAIN	1	5	SPEAR	PIT	0	3	[0, 0, 0]	n/a	1	1	4600	DA1	DA2	1500.0	50	230	300	PAL2	0	R1003P
415.253	4.0	366654	TEST_PROBE	n/a	wordpools/wordpool_EN.txt	SPEAR	TRAIN	1	5	SPEAR	PIT	0	3	[0, 0, 0]	n/a	1	1	4600	DA1	DA2	1500.0	50	230	300	PAL2	0	R1003P
415.254	3.073	366655	REC_START	n/a	n/a	n/a	n/a	1	-999	n/a	PIT	0	3	[0, 0, 0]	n/a	1	1	4600	DA1	DA2	1500.0	50	230	300	PAL2	0	R1003P
418.327	1.935	368191	REC_EVENT	3.073	n/a	SPEAR	TRAIN	1	5	SPEAR	PIT	0	3	[0, 0, 0]	n/a	1	1	4600	DA1	DA2	1500.0	50	230	300	PAL2	0	R1003P
420.262	0.009	369159	REC_END	n/a	n/a	n/a	n/a	1	-999	n/a	n/a	-999	3	[0, 0, 0]	n/a	0	1	0	n/a	n/a	0.0	0	0	0	PAL2	0	R1003P
420.271	0.25	369163	TEST_ORIENT	n/a	n/a	GRASS	SKY	4	6	GRASS	n/a	0	3	[0, 0, 0]	n/a	0	1	0	n/a	n/a	0.0	0	0	0	PAL2	0	R1003P
421.304	4.0	369680	TEST_PROBE	n/a	wordpools/wordpool_EN.txt	GRASS	SKY	4	6	GRASS	n/a	0	3	[0, 0, 0]	n/a	0	1	0	n/a	n/a	0.0	0	0	0	PAL2	0	R1003P
421.305	5.008	369680	REC_START	n/a	n/a	n/a	n/a	4	-999	n/a	n/a	0	3	[0, 0, 0]	n/a	0	1	0	n/a	n/a	0.0	0	0	0	PAL2	0	R1003P
426.313	0.001	372184	REC_END	n/a	n/a	n/a	n/a	4	-999	n/a	n/a	-999	3	[0, 0, 0]	n/a	0	1	0	n/a	n/a	0.0	0	0	0	PAL2	0	R1003P
426.314	1.022	372184	REC_EVENT	5.009	n/a	GRASS	SKY	4	6	GRASS	<>	0	3	[0, 0, 0]	n/a	0	1	0	n/a	n/a	0.0	0	0	0	PAL2	0	R1003P
427.336	10.438	372695	ENCODING_START	n/a	n/a	n/a	n/a	0	-999	n/a	n/a	-999	4	[0, 0, 0]	n/a	0	1	0	n/a	n/a	0.0	0	0	0	PAL2	0	R1003P
437.774	0.25	377914	STUDY_ORIENT	n/a	n/a	JAIL	STEM	1	1	STEM	VINE	0	4	[0, 0, 0]	n/a	0	1	0	n/a	n/a	0.0	0	0	0	PAL2	0	R1003P
438.423	4.6	378239	STIM_ON	n/a	n/a	JAIL	STEM	1	1	STEM	VINE	0	4	[0, 0, 0]	n/a	1	1	4600	DA1	DA2	1500.0	50	230	300	PAL2	0	R1003P
438.624	4.0	378339	STUDY_PAIR	n/a	wordpools/wordpool_EN.txt	JAIL	STEM	1	1	STEM	VINE	0	4	[0, 0, 0]	n/a	1	1	4600	DA1	DA2	1500.0	50	230	300	PAL2	0	R1003P
443.642	0.25	380848	STUDY_ORIENT	n/a	n/a	CHEEK	CLOCK	2	2	CLOCK	n/a	0	4	[0, 0, 0]	n/a	0	1	0	n/a	n/a	0.0	0	0	0	PAL2	0	R1003P
444.475	4.0	381264	STUDY_PAIR	n/a	wordpools/wordpool_EN.txt	CHEEK	CLOCK	2	2	CLOCK	n/a	0	4	[0, 0, 0]	n/a	0	1	0	n/a	n/a	0.0	0	0	0	PAL2	0	R1003P
449.493	0.25	383773	STUDY_ORIENT	n/a	n/a	HEN	FARM	3	3	HEN	n/a	0	4	[0, 0, 0]	n/a	0	1	0	n/a	n/a	0.0	0	0	0	PAL2	0	R1003P
450.125	4.6	384089	STIM_ON	n/a	n/a	HEN	FARM	3	3	HEN	n/a	0	4	[0, 0, 0]	n/a	1	1	4600	DA1	DA2	1500.0	50	230	300	PAL2	0	R1003P
450.326	4.0	384190	STUDY_PAIR	n/a	wordpools/wordpool_EN.txt	HEN	FARM	3	3	HEN	n/a	0	4	[0, 0, 0]	n/a	1	1	4600	DA1	DA2	1500.0	50	230	300	PAL2	0	R1003P
455.344	0.25	386699	STUDY_ORIENT	n/a	n/a	CONE	ICE	4	6	ICE	WEDGE	0	4	[0, 0, 0]	n/a	0	1	0	n/a	n/a	0.0	0	0	0	PAL2	0	R1003P
456.127	4.0	387090	STUDY_PAIR	n/a	wordpools/wordpool_EN.txt	CONE	ICE	4	6	ICE	WEDGE	0	4	[0, 0, 0]	n/a	0	1	0	n/a	n/a	0.0	0	0	0	PAL2	0	R1003P
461.161	0.25	389607	STUDY_ORIENT	n/a	n/a	PHONE	COW	5	5	PHONE	n/a	0	4	[0, 0, 0]	n/a	0	1	0	n/a	n/a	0.0	0	0	0	PAL2	0	R1003P
461.895	4.6	389974	STIM_ON	n/a	n/a	PHONE	COW	5	5	PHONE	n/a	0	4	[0, 0, 0]	n/a	1	1	4600	DA1	DA2	1500.0	50	230	300	PAL2	0	R1003P
462.111	4.0	390082	STUDY_PAIR	n/a	wordpools/wordpool_EN.txt	PHONE	COW	5	5	PHONE	n/a	0	4	[0, 0, 0]	n/a	1	1	4600	DA1	DA2	1500.0	50	230	300	PAL2	0	R1003P
467.129	0.25	392591	STUDY_ORIENT	n/a	n/a	SOUP	DOOR	6	4	DOOR	DOCK	0	4	[0, 0, 0]	n/a	0	1	0	n/a	n/a	0.0	0	0	0	PAL2	0	R1003P
467.963	4.0	393008	STUDY_PAIR	n/a	wordpools/wordpool_EN.txt	SOUP	DOOR	6	4	DOOR	DOCK	0	4	[0, 0, 0]	n/a	0	1	0	n/a	n/a	0.0	0	0	0	PAL2	0	R1003P
471.964	1.0	395008	START	n/a	n/a	n/a	n/a	-999	-999	n/a	n/a	-999	4	[-999, -999, -999]	n/a	0	1	0	n/a	n/a	0.0	0	0	0	PAL2	0	R1003P
472.964	0.017	395508	MATH_START	n/a	n/a	n/a	n/a	-999	-999	n/a	n/a	-999	4	[0, 0, 0]	n/a	0	1	0	n/a	n/a	0.0	0	0	0	PAL2	0	R1003P
472.981	2.617	395517	PROB	2.587	n/a	n/a	n/a	-999	-999	n/a	n/a	-999	4	[1, 9, 7]	17	0	1	0	n/a	n/a	0.0	0	0	0	PAL2	0	R1003P
475.598	2.067	396825	PROB	2.034	n/a	n/a	n/a	-999	-999	n/a	n/a	-999	4	[2, 5, 5]	12	0	1	0	n/a	n/a	0.0	0	0	0	PAL2	0	R1003P
477.665	4.651	397859	PROB	4.623	n/a	n/a	n/a	-999	-999	n/a	n/a	-999	4	[6, 9, 3]	18	0	1	0	n/a	n/a	0.0	0	0	0	PAL2	0	R1003P
482.316	2.651	400184	PROB	2.628	n/a	n/a	n/a	-999	-999	n/a	n/a	-999	4	[1, 1, 7]	9	0	1	0	n/a	n/a	0.0	0	0	0	PAL2	0	R1003P
484.967	2.567	401509	PROB	2.537	n/a	n/a	n/a	-999	-999	n/a	n/a	-999	4	[8, 2, 6]	16	0	1	0	n/a	n/a	0.0	0	0	0	PAL2	0	R1003P
487.534	4.317	402793	PROB	4.298	n/a	n/a	n/a	-999	-999	n/a	n/a	-999	4	[8, 9, 3]	20	0	1	0	n/a	n/a	0.0	0	0	0	PAL2	0	R1003P
491.851	2.677	404951	PROB	2.677	n/a	n/a	n/a	-999	-999	n/a	n/a	-999	4	[4, 8, 6]	18	0	1	0	n/a	n/a	0.0	0	0	0	PAL2	0	R1003P
494.528	0.007	406290	STOP	n/a	n/a	n/a	n/a	-999	-999	n/a	n/a	-999	4	[-999, -999, -999]	n/a	0	1	0	n/a	n/a	0.0	0	0	0	PAL2	0	R1003P
494.535	0.0	406293	MATH_END	n/a	n/a	n/a	n/a	-999	-999	n/a	n/a	-999	4	[0, 0, 0]	n/a	0	1	0	n/a	n/a	0.0	0	0	0	PAL2	0	R1003P
494.535	0.017	406293	TEST_START	n/a	n/a	n/a	n/a	-999	-999	n/a	n/a	-999	4	[0, 0, 0]	n/a	0	1	0	n/a	n/a	0.0	0	0	0	PAL2	0	R1003P
494.552	0.25	406302	TEST_ORIENT	n/a	n/a	JAIL	STEM	1	1	STEM	VINE	0	4	[0, 0, 0]	n/a	0	1	0	n/a	n/a	0.0	0	0	0	PAL2	0	R1003P
495.519	4.0	406785	TEST_PROBE	n/a	wordpools/wordpool_EN.txt	JAIL	STEM	1	1	STEM	VINE	0	4	[0, 0, 0]	n/a	0	1	0	n/a	n/a	0.0	0	0	0	PAL2	0	R1003P
495.519	2.591	406785	REC_START	n/a	n/a	n/a	n/a	1	-999	n/a	VINE	0	4	[0, 0, 0]	n/a	0	1	0	n/a	n/a	0.0	0	0	0	PAL2	0	R1003P
498.11	2.426	408081	REC_EVENT	2.591	n/a	JAIL	STEM	1	1	STEM	VINE	0	4	[0, 0, 0]	n/a	0	1	0	n/a	n/a	0.0	0	0	0	PAL2	0	R1003P
500.536	0.017	409294	REC_END	n/a	n/a	n/a	n/a	1	-999	n/a	n/a	-999	4	[0, 0, 0]	n/a	0	1	0	n/a	n/a	0.0	0	0	0	PAL2	0	R1003P
500.553	0.25	409302	TEST_ORIENT	n/a	n/a	CHEEK	CLOCK	2	2	CLOCK	n/a	0	4	[0, 0, 0]	n/a	0	1	0	n/a	n/a	0.0	0	0	0	PAL2	0	R1003P
501.486	4.0	409769	TEST_PROBE	n/a	wordpools/wordpool_EN.txt	CHEEK	CLOCK	2	2	CLOCK	n/a	0	4	[0, 0, 0]	n/a	0	1	0	n/a	n/a	0.0	0	0	0	PAL2	0	R1003P
501.487	5.008	409769	REC_START	n/a	n/a	n/a	n/a	2	-999	n/a	n/a	0	4	[0, 0, 0]	n/a	0	1	0	n/a	n/a	0.0	0	0	0	PAL2	0	R1003P
506.495	0.001	412273	REC_END	n/a	n/a	n/a	n/a	2	-999	n/a	n/a	-999	4	[0, 0, 0]	n/a	0	1	0	n/a	n/a	0.0	0	0	0	PAL2	0	R1003P
506.496	0.008	412273	REC_EVENT	5.009	n/a	CHEEK	CLOCK	2	2	CLOCK	<>	0	4	[0, 0, 0]	n/a	0	1	0	n/a	n/a	0.0	0	0	0	PAL2	0	R1003P
506.504	0.25	412277	TEST_ORIENT	n/a	n/a	HEN	FARM	3	3	HEN	n/a	0	4	[0, 0, 0]	n/a	0	1	0	n/a	n/a	0.0	0	0	0	PAL2	0	R1003P
507.371	4.0	412711	TEST_PROBE	n/a	wordpools/wordpool_EN.txt	HEN	FARM	3	3	HEN	n/a	0	4	[0, 0, 0]	n/a	0	1	0	n/a	n/a	0.0	0	0	0	PAL2	0	R1003P
507.371	5.015	412711	REC_START	n/a	n/a	n/a	n/a	3	-999	n/a	n/a	0	4	[0, 0, 0]	n/a	0	1	0	n/a	n/a	0.0	0	0	0	PAL2	0	R1003P
512.386	0.002	415218	REC_EVENT	5.015	n/a	HEN	FARM	3	3	HEN	<>	0	4	[0, 0, 0]	n/a	0	1	0	n/a	n/a	0.0	0	0	0	PAL2	0	R1003P
512.388	0.017	415219	REC_END	n/a	n/a	n/a	n/a	3	-999	n/a	n/a	-999	4	[0, 0, 0]	n/a	0	1	0	n/a	n/a	0.0	0	0	0	PAL2	0	R1003P
512.405	0.25	415228	TEST_ORIENT	n/a	n/a	SOUP	DOOR	6	4	DOOR	DOCK	0	4	[0, 0, 0]	n/a	0	1	0	n/a	n/a	0.0	0	0	0	PAL2	0	R1003P
513.389	4.0	415720	TEST_PROBE	n/a	wordpools/wordpool_EN.txt	SOUP	DOOR	6	4	DOOR	DOCK	0	4	[0, 0, 0]	n/a	0	1	0	n/a	n/a	0.0	0	0	0	PAL2	0	R1003P
513.389	3.213	415720	REC_START	n/a	n/a	n/a	n/a	6	-999	n/a	DOCK	0	4	[0, 0, 0]	n/a	0	1	0	n/a	n/a	0.0	0	0	0	PAL2	0	R1003P
516.602	1.804	417326	REC_EVENT	3.213	n/a	SOUP	DOOR	6	4	DOOR	DOCK	0	4	[0, 0, 0]	n/a	0	1	0	n/a	n/a	0.0	0	0	0	PAL2	0	R1003P
518.406	0.017	418228	REC_END	n/a	n/a	n/a	n/a	6	-999	n/a	n/a	-999	4	[0, 0, 0]	n/a	0	1	0	n/a	n/a	0.0	0	0	0	PAL2	0	R1003P
518.423	0.25	418237	TEST_ORIENT	n/a	n/a	PHONE	COW	5	5	PHONE	n/a	0	4	[0, 0, 0]	n/a	0	1	0	n/a	n/a	0.0	0	0	0	PAL2	0	R1003P
519.357	4.0	418704	TEST_PROBE	n/a	wordpools/wordpool_EN.txt	PHONE	COW	5	5	PHONE	n/a	0	4	[0, 0, 0]	n/a	0	1	0	n/a	n/a	0.0	0	0	0	PAL2	0	R1003P
519.357	5.017	418704	REC_START	n/a	n/a	n/a	n/a	5	-999	n/a	n/a	0	4	[0, 0, 0]	n/a	0	1	0	n/a	n/a	0.0	0	0	0	PAL2	0	R1003P
524.374	0.004	421212	REC_END	n/a	n/a	n/a	n/a	5	-999	n/a	n/a	-999	4	[0, 0, 0]	n/a	0	1	0	n/a	n/a	0.0	0	0	0	PAL2	0	R1003P
524.378	0.013	421214	REC_EVENT	5.021	n/a	PHONE	COW	5	5	PHONE	<>	0	4	[0, 0, 0]	n/a	0	1	0	n/a	n/a	0.0	0	0	0	PAL2	0	R1003P
524.391	0.25	421220	TEST_ORIENT	n/a	n/a	CONE	ICE	4	6	ICE	WEDGE	0	4	[0, 0, 0]	n/a	0	1	0	n/a	n/a	0.0	0	0	0	PAL2	0	R1003P
525.391	4.0	421720	TEST_PROBE	n/a	wordpools/wordpool_EN.txt	CONE	ICE	4	6	ICE	WEDGE	0	4	[0, 0, 0]	n/a	0	1	0	n/a	n/a	0.0	0	0	0	PAL2	0	R1003P
525.392	2.161	421721	REC_START	n/a	n/a	n/a	n/a	4	-999	n/a	WEDGE	0	4	[0, 0, 0]	n/a	0	1	0	n/a	n/a	0.0	0	0	0	PAL2	0	R1003P
527.553	2.855	422801	REC_EVENT	2.161	n/a	CONE	ICE	4	6	ICE	WEDGE	0	4	[0, 0, 0]	n/a	0	1	0	n/a	n/a	0.0	0	0	0	PAL2	0	R1003P
530.408	1.792	424229	REC_END	n/a	n/a	n/a	n/a	4	-999	n/a	n/a	-999	4	[0, 0, 0]	n/a	0	1	0	n/a	n/a	0.0	0	0	0	PAL2	0	R1003P
532.2	10.444	425125	ENCODING_START	n/a	n/a	n/a	n/a	0	-999	n/a	n/a	-999	5	[0, 0, 0]	n/a	0	0	0	n/a	n/a	0.0	0	0	0	PAL2	0	R1003P
542.644	0.25	430346	STUDY_ORIENT	n/a	n/a	FLUTE	POND	1	5	POND	n/a	0	5	[0, 0, 0]	n/a	0	0	0	n/a	n/a	0.0	0	0	0	PAL2	0	R1003P
543.444	4.0	430746	STUDY_PAIR	n/a	wordpools/wordpool_EN.txt	FLUTE	POND	1	5	POND	n/a	0	5	[0, 0, 0]	n/a	0	0	0	n/a	n/a	0.0	0	0	0	PAL2	0	R1003P
548.462	0.25	433255	STUDY_ORIENT	n/a	n/a	SINK	CORN	2	6	SINK	SOCK	0	5	[0, 0, 0]	n/a	0	0	0	n/a	n/a	0.0	0	0	0	PAL2	0	R1003P
549.379	4.0	433714	STUDY_PAIR	n/a	wordpools/wordpool_EN.txt	SINK	CORN	2	6	SINK	SOCK	0	5	[0, 0, 0]	n/a	0	0	0	n/a	n/a	0.0	0	0	0	PAL2	0	R1003P
554.413	0.25	436231	STUDY_ORIENT	n/a	n/a	SOCK	HILL	3	3	SOCK	n/a	0	5	[0, 0, 0]	n/a	0	0	0	n/a	n/a	0.0	0	0	0	PAL2	0	R1003P
555.413	4.0	436731	STUDY_PAIR	n/a	wordpools/wordpool_EN.txt	SOCK	HILL	3	3	SOCK	n/a	0	5	[0, 0, 0]	n/a	0	0	0	n/a	n/a	0.0	0	0	0	PAL2	0	R1003P
560.431	0.25	439239	STUDY_ORIENT	n/a	n/a	FORT	FLAG	4	2	FLAG	BOX	0	5	[0, 0, 0]	n/a	0	0	0	n/a	n/a	0.0	0	0	0	PAL2	0	R1003P
561.281	4.0	439664	STUDY_PAIR	n/a	wordpools/wordpool_EN.txt	FORT	FLAG	4	2	FLAG	BOX	0	5	[0, 0, 0]	n/a	0	0	0	n/a	n/a	0.0	0	0	0	PAL2	0	R1003P
566.299	0.25	442173	STUDY_ORIENT	n/a	n/a	HAND	STOVE	5	1	HAND	STICK	0	5	[0, 0, 0]	n/a	0	0	0	n/a	n/a	0.0	0	0	0	PAL2	0	R1003P
567.131	4.0	442589	STUDY_PAIR	n/a	wordpools/wordpool_EN.txt	HAND	STOVE	5	1	HAND	STICK	0	5	[0, 0, 0]	n/a	0	0	0	n/a	n/a	0.0	0	0	0	PAL2	0	R1003P
572.149	0.25	445098	STUDY_ORIENT	n/a	n/a	BEAK	TRUCK	6	4	BEAK	n/a	0	5	[0, 0, 0]	n/a	0	0	0	n/a	n/a	0.0	0	0	0	PAL2	0	R1003P
572.984	4.0	445516	STUDY_PAIR	n/a	wordpools/wordpool_EN.txt	BEAK	TRUCK	6	4	BEAK	n/a	0	5	[0, 0, 0]	n/a	0	0	0	n/a	n/a	0.0	0	0	0	PAL2	0	R1003P
577.002	0.999	447525	START	n/a	n/a	n/a	n/a	-999	-999	n/a	n/a	-999	5	[-999, -999, -999]	n/a	0	0	0	n/a	n/a	0.0	0	0	0	PAL2	0	R1003P
578.001	0.017	448024	MATH_START	n/a	n/a	n/a	n/a	-999	-999	n/a	n/a	-999	5	[0, 0, 0]	n/a	0	0	0	n/a	n/a	0.0	0	0	0	PAL2	0	R1003P
578.018	3.384	448033	PROB	3.35	n/a	n/a	n/a	-999	-999	n/a	n/a	-999	5	[4, 3, 7]	14	0	0	0	n/a	n/a	0.0	0	0	0	PAL2	0	R1003P
581.402	6.251	449724	PROB	6.222	n/a	n/a	n/a	-999	-999	n/a	n/a	-999	5	[4, 8, 3]	15	0	0	0	n/a	n/a	0.0	0	0	0	PAL2	0	R1003P
587.653	2.851	452850	PROB	2.819	n/a	n/a	n/a	-999	-999	n/a	n/a	-999	5	[8, 7, 1]	16	0	0	0	n/a	n/a	0.0	0	0	0	PAL2	0	R1003P
590.504	3.133	454275	PROB	3.112	n/a	n/a	n/a	-999	-999	n/a	n/a	-999	5	[8, 2, 8]	18	0	0	0	n/a	n/a	0.0	0	0	0	PAL2	0	R1003P
593.637	2.234	455842	PROB	2.203	n/a	n/a	n/a	-999	-999	n/a	n/a	-999	5	[3, 9, 1]	13	0	0	0	n/a	n/a	0.0	0	0	0	PAL2	0	R1003P
595.871	3.377	456959	PROB	3.377	n/a	n/a	n/a	-999	-999	n/a	n/a	-999	5	[3, 6, 6]	15	0	0	0	n/a	n/a	0.0	0	0	0	PAL2	0	R1003P
599.248	0.007	458647	STOP	n/a	n/a	n/a	n/a	-999	-999	n/a	n/a	-999	5	[-999, -999, -999]	n/a	0	0	0	n/a	n/a	0.0	0	0	0	PAL2	0	R1003P
599.255	0.0	458650	MATH_END	n/a	n/a	n/a	n/a	-999	-999	n/a	n/a	-999	5	[0, 0, 0]	n/a	0	0	0	n/a	n/a	0.0	0	0	0	PAL2	0	R1003P
599.255	0.017	458650	TEST_START	n/a	n/a	n/a	n/a	-999	-999	n/a	n/a	-999	5	[0, 0, 0]	n/a	0	0	0	n/a	n/a	0.0	0	0	0	PAL2	0	R1003P
599.272	0.25	458659	TEST_ORIENT	n/a	n/a	HAND	STOVE	5	1	HAND	STICK	0	5	[0, 0, 0]	n/a	0	0	0	n/a	n/a	0.0	0	0	0	PAL2	0	R1003P
600.255	4.0	459150	TEST_PROBE	n/a	wordpools/wordpool_EN.txt	HAND	STOVE	5	1	HAND	STICK	0	5	[0, 0, 0]	n/a	0	0	0	n/a	n/a	0.0	0	0	0	PAL2	0	R1003P
600.256	2.081	459151	REC_START	n/a	n/a	n/a	n/a	5	-999	n/a	STICK	0	5	[0, 0, 0]	n/a	0	0	0	n/a	n/a	0.0	0	0	0	PAL2	0	R1003P
602.337	2.927	460191	REC_EVENT	2.081	n/a	HAND	STOVE	5	1	HAND	STICK	0	5	[0, 0, 0]	n/a	0	0	0	n/a	n/a	0.0	0	0	0	PAL2	0	R1003P
605.264	0.009	461655	REC_END	n/a	n/a	n/a	n/a	5	-999	n/a	n/a	-999	5	[0, 0, 0]	n/a	0	0	0	n/a	n/a	0.0	0	0	0	PAL2	0	R1003P
605.273	0.25	461659	TEST_ORIENT	n/a	n/a	FORT	FLAG	4	2	FLAG	BOX	0	5	[0, 0, 0]	n/a	0	0	0	n/a	n/a	0.0	0	0	0	PAL2	0	R1003P
606.089	4.0	462067	TEST_PROBE	n/a	wordpools/wordpool_EN.txt	FORT	FLAG	4	2	FLAG	BOX	0	5	[0, 0, 0]	n/a	0	0	0	n/a	n/a	0.0	0	0	0	PAL2	0	R1003P
606.09	2.619	462068	REC_START	n/a	n/a	n/a	n/a	4	-999	n/a	BOX	0	5	[0, 0, 0]	n/a	0	0	0	n/a	n/a	0.0	0	0	0	PAL2	0	R1003P
608.709	2.397	463377	REC_EVENT	2.619	n/a	FORT	FLAG	4	2	FLAG	BOX	0	5	[0, 0, 0]	n/a	0	0	0	n/a	n/a	0.0	0	0	0	PAL2	0	R1003P
611.106	0.017	464576	REC_END	n/a	n/a	n/a	n/a	4	-999	n/a	n/a	-999	5	[0, 0, 0]	n/a	0	0	0	n/a	n/a	0.0	0	0	0	PAL2	0	R1003P
611.123	0.25	464584	TEST_ORIENT	n/a	n/a	SOCK	HILL	3	3	SOCK	n/a	0	5	[0, 0, 0]	n/a	0	0	0	n/a	n/a	0.0	0	0	0	PAL2	0	R1003P
611.974	4.0	465010	TEST_PROBE	n/a	wordpools/wordpool_EN.txt	SOCK	HILL	3	3	SOCK	n/a	0	5	[0, 0, 0]	n/a	0	0	0	n/a	n/a	0.0	0	0	0	PAL2	0	R1003P
611.975	5.0	465010	REC_START	n/a	n/a	n/a	n/a	3	-999	n/a	n/a	0	5	[0, 0, 0]	n/a	0	0	0	n/a	n/a	0.0	0	0	0	PAL2	0	R1003P
616.975	0.003	467510	REC_END	n/a	n/a	n/a	n/a	3	-999	n/a	n/a	-999	5	[0, 0, 0]	n/a	0	0	0	n/a	n/a	0.0	0	0	0	PAL2	0	R1003P
616.978	0.014	467512	REC_EVENT	5.003	n/a	SOCK	HILL	3	3	SOCK	<>	0	5	[0, 0, 0]	n/a	0	0	0	n/a	n/a	0.0	0	0	0	PAL2	0	R1003P
616.992	0.25	467519	TEST_ORIENT	n/a	n/a	BEAK	TRUCK	6	4	BEAK	n/a	0	5	[0, 0, 0]	n/a	0	0	0	n/a	n/a	0.0	0	0	0	PAL2	0	R1003P
617.842	4.0	467944	TEST_PROBE	n/a	wordpools/wordpool_EN.txt	BEAK	TRUCK	6	4	BEAK	n/a	0	5	[0, 0, 0]	n/a	0	0	0	n/a	n/a	0.0	0	0	0	PAL2	0	R1003P
617.843	5.009	467944	REC_START	n/a	n/a	n/a	n/a	6	-999	n/a	n/a	0	5	[0, 0, 0]	n/a	0	0	0	n/a	n/a	0.0	0	0	0	PAL2	0	R1003P
622.852	0.0	470448	REC_END	n/a	n/a	n/a	n/a	6	-999	n/a	n/a	-999	5	[0, 0, 0]	n/a	0	0	0	n/a	n/a	0.0	0	0	0	PAL2	0	R1003P
622.852	0.008	470448	REC_EVENT	5.009	n/a	BEAK	TRUCK	6	4	BEAK	<>	0	5	[0, 0, 0]	n/a	0	0	0	n/a	n/a	0.0	0	0	0	PAL2	0	R1003P
622.86	0.25	470452	TEST_ORIENT	n/a	n/a	FLUTE	POND	1	5	POND	n/a	0	5	[0, 0, 0]	n/a	0	0	0	n/a	n/a	0.0	0	0	0	PAL2	0	R1003P
623.827	4.0	470936	TEST_PROBE	n/a	wordpools/wordpool_EN.txt	FLUTE	POND	1	5	POND	n/a	0	5	[0, 0, 0]	n/a	0	0	0	n/a	n/a	0.0	0	0	0	PAL2	0	R1003P
623.827	5.025	470936	REC_START	n/a	n/a	n/a	n/a	1	-999	n/a	n/a	0	5	[0, 0, 0]	n/a	0	0	0	n/a	n/a	0.0	0	0	0	PAL2	0	R1003P
628.852	0.002	473448	REC_END	n/a	n/a	n/a	n/a	1	-999	n/a	n/a	-999	5	[0, 0, 0]	n/a	0	0	0	n/a	n/a	0.0	0	0	0	PAL2	0	R1003P
628.854	0.007	473449	REC_EVENT	5.027	n/a	FLUTE	POND	1	5	POND	<>	0	5	[0, 0, 0]	n/a	0	0	0	n/a	n/a	0.0	0	0	0	PAL2	0	R1003P
628.861	0.25	473453	TEST_ORIENT	n/a	n/a	SINK	CORN	2	6	SINK	SOCK	0	5	[0, 0, 0]	n/a	0	0	0	n/a	n/a	0.0	0	0	0	PAL2	0	R1003P
629.845	4.0	473945	TEST_PROBE	n/a	wordpools/wordpool_EN.txt	SINK	CORN	2	6	SINK	SOCK	0	5	[0, 0, 0]	n/a	0	0	0	n/a	n/a	0.0	0	0	0	PAL2	0	R1003P
629.845	1.954	473945	REC_START	n/a	n/a	n/a	n/a	2	-999	n/a	SOCK	0	5	[0, 0, 0]	n/a	0	0	0	n/a	n/a	0.0	0	0	0	PAL2	0	R1003P
631.799	3.063	474922	REC_EVENT	1.954	n/a	SINK	CORN	2	6	SINK	SOCK	0	5	[0, 0, 0]	n/a	0	0	0	n/a	n/a	0.0	0	0	0	PAL2	0	R1003P
634.862	1.002	476453	REC_END	n/a	n/a	n/a	n/a	2	-999	n/a	n/a	-999	5	[0, 0, 0]	n/a	0	0	0	n/a	n/a	0.0	0	0	0	PAL2	0	R1003P
635.864	10.45	476954	ENCODING_START	n/a	n/a	n/a	n/a	0	-999	n/a	n/a	-999	6	[0, 0, 0]	n/a	0	1	0	n/a	n/a	0.0	0	0	0	PAL2	0	R1003P
646.314	0.25	482179	STUDY_ORIENT	n/a	n/a	SCHOOL	POOL	1	5	SCHOOL	POOL	1	6	[0, 0, 0]	n/a	0	1	0	n/a	n/a	0.0	0	0	0	PAL2	0	R1003P
647.198	4.0	482621	STUDY_PAIR	n/a	wordpools/wordpool_EN.txt	SCHOOL	POOL	1	5	SCHOOL	POOL	1	6	[0, 0, 0]	n/a	0	1	0	n/a	n/a	0.0	0	0	0	PAL2	0	R1003P
652.232	0.25	485138	STUDY_ORIENT	n/a	n/a	PIPE	WING	2	4	PIPE	n/a	0	6	[0, 0, 0]	n/a	0	1	0	n/a	n/a	0.0	0	0	0	PAL2	0	R1003P
653.182	4.0	485613	STUDY_PAIR	n/a	wordpools/wordpool_EN.txt	PIPE	WING	2	4	PIPE	n/a	0	6	[0, 0, 0]	n/a	0	1	0	n/a	n/a	0.0	0	0	0	PAL2	0	R1003P
658.2	0.25	488121	STUDY_ORIENT	n/a	n/a	RICE	HEART	3	1	HEART	SWAMP	0	6	[0, 0, 0]	n/a	0	1	0	n/a	n/a	0.0	0	0	0	PAL2	0	R1003P
659.116	4.0	488579	STUDY_PAIR	n/a	wordpools/wordpool_EN.txt	RICE	HEART	3	1	HEART	SWAMP	0	6	[0, 0, 0]	n/a	0	1	0	n/a	n/a	0.0	0	0	0	PAL2	0	R1003P
664.15	0.25	491096	STUDY_ORIENT	n/a	n/a	SWAMP	CROWN	4	2	CROWN	n/a	0	6	[0, 0, 0]	n/a	0	1	0	n/a	n/a	0.0	0	0	0	PAL2	0	R1003P
665.001	4.0	491522	STUDY_PAIR	n/a	wordpools/wordpool_EN.txt	SWAMP	CROWN	4	2	CROWN	n/a	0	6	[0, 0, 0]	n/a	0	1	0	n/a	n/a	0.0	0	0	0	PAL2	0	R1003P
670.019	0.25	494031	STUDY_ORIENT	n/a	n/a	TOAD	BALL	5	3	BALL	n/a	0	6	[0, 0, 0]	n/a	0	1	0	n/a	n/a	0.0	0	0	0	PAL2	0	R1003P
670.936	4.0	494489	STUDY_PAIR	n/a	wordpools/wordpool_EN.txt	TOAD	BALL	5	3	BALL	n/a	0	6	[0, 0, 0]	n/a	0	1	0	n/a	n/a	0.0	0	0	0	PAL2	0	R1003P
675.97	0.25	497006	STUDY_ORIENT	n/a	n/a	TOE	FLAME	6	6	TOE	n/a	0	6	[0, 0, 0]	n/a	0	1	0	n/a	n/a	0.0	0	0	0	PAL2	0	R1003P
676.753	4.0	497397	STUDY_PAIR	n/a	wordpools/wordpool_EN.txt	TOE	FLAME	6	6	TOE	n/a	0	6	[0, 0, 0]	n/a	0	1	0	n/a	n/a	0.0	0	0	0	PAL2	0	R1003P
680.755	0.999	499398	START	n/a	n/a	n/a	n/a	-999	-999	n/a	n/a	-999	6	[-999, -999, -999]	n/a	0	1	0	n/a	n/a	0.0	0	0	0	PAL2	0	R1003P
681.754	0.017	499898	MATH_START	n/a	n/a	n/a	n/a	-999	-999	n/a	n/a	-999	6	[0, 0, 0]	n/a	0	1	0	n/a	n/a	0.0	0	0	0	PAL2	0	R1003P
681.771	2.601	499906	PROB	2.581	n/a	n/a	n/a	-999	-999	n/a	n/a	-999	6	[1, 2, 1]	4	0	1	0	n/a	n/a	0.0	0	0	0	PAL2	0	R1003P
684.372	2.65	501207	PROB	2.62	n/a	n/a	n/a	-999	-999	n/a	n/a	-999	6	[4, 6, 4]	14	0	1	0	n/a	n/a	0.0	0	0	0	PAL2	0	R1003P
687.022	3.518	502532	PROB	3.498	n/a	n/a	n/a	-999	-999	n/a	n/a	-999	6	[5, 4, 5]	14	0	1	0	n/a	n/a	0.0	0	0	0	PAL2	0	R1003P
690.54	2.85	504291	PROB	2.82	n/a	n/a	n/a	-999	-999	n/a	n/a	-999	6	[6, 1, 8]	15	0	1	0	n/a	n/a	0.0	0	0	0	PAL2	0	R1003P
693.39	6.285	505716	PROB	6.266	n/a	n/a	n/a	-999	-999	n/a	n/a	-999	6	[3, 4, 9]	16	0	1	0	n/a	n/a	0.0	0	0	0	PAL2	0	R1003P
699.675	2.797	508858	PROB	2.797	n/a	n/a	n/a	-999	-999	n/a	n/a	-999	6	[5, 4, 3]	12	0	1	0	n/a	n/a	0.0	0	0	0	PAL2	0	R1003P
702.472	0.003	510256	STOP	n/a	n/a	n/a	n/a	-999	-999	n/a	n/a	-999	6	[-999, -999, -999]	n/a	0	1	0	n/a	n/a	0.0	0	0	0	PAL2	0	R1003P
702.475	0.0	510258	TEST_START	n/a	n/a	n/a	n/a	-999	-999	n/a	n/a	-999	6	[0, 0, 0]	n/a	0	1	0	n/a	n/a	0.0	0	0	0	PAL2	0	R1003P
702.475	0.017	510258	MATH_END	n/a	n/a	n/a	n/a	-999	-999	n/a	n/a	-999	6	[0, 0, 0]	n/a	0	1	0	n/a	n/a	0.0	0	0	0	PAL2	0	R1003P
702.492	0.25	510266	TEST_ORIENT	n/a	n/a	RICE	HEART	3	1	HEART	SWAMP	0	6	[0, 0, 0]	n/a	0	1	0	n/a	n/a	0.0	0	0	0	PAL2	0	R1003P
703.189	4.6	510615	STIM_ON	n/a	n/a	RICE	HEART	3	1	HEART	SWAMP	0	6	[0, 0, 0]	n/a	1	1	4600	DA1	DA2	1500.0	50	230	300	PAL2	0	R1003P
703.392	4.0	510716	TEST_PROBE	n/a	wordpools/wordpool_EN.txt	RICE	HEART	3	1	HEART	SWAMP	0	6	[0, 0, 0]	n/a	1	1	4600	DA1	DA2	1500.0	50	230	300	PAL2	0	R1003P
703.392	1.834	510716	REC_START	n/a	n/a	n/a	n/a	3	-999	n/a	SWAMP	0	6	[0, 0, 0]	n/a	1	1	4600	DA1	DA2	1500.0	50	230	300	PAL2	0	R1003P
705.226	3.183	511633	REC_EVENT	1.834	n/a	RICE	HEART	3	1	HEART	SWAMP	0	6	[0, 0, 0]	n/a	1	1	4600	DA1	DA2	1500.0	50	230	300	PAL2	0	R1003P
708.409	0.017	513225	REC_END	n/a	n/a	n/a	n/a	3	-999	n/a	n/a	-999	6	[0, 0, 0]	n/a	0	1	0	n/a	n/a	0.0	0	0	0	PAL2	0	R1003P
708.426	0.25	513233	TEST_ORIENT	n/a	n/a	SWAMP	CROWN	4	2	CROWN	n/a	0	6	[0, 0, 0]	n/a	0	1	0	n/a	n/a	0.0	0	0	0	PAL2	0	R1003P
709.41	4.0	513725	TEST_PROBE	n/a	wordpools/wordpool_EN.txt	SWAMP	CROWN	4	2	CROWN	n/a	0	6	[0, 0, 0]	n/a	0	1	0	n/a	n/a	0.0	0	0	0	PAL2	0	R1003P
709.41	5.015	513725	REC_START	n/a	n/a	n/a	n/a	4	-999	n/a	n/a	0	6	[0, 0, 0]	n/a	0	1	0	n/a	n/a	0.0	0	0	0	PAL2	0	R1003P
714.425	0.002	516233	REC_EVENT	5.015	n/a	SWAMP	CROWN	4	2	CROWN	<>	0	6	[0, 0, 0]	n/a	0	1	0	n/a	n/a	0.0	0	0	0	PAL2	0	R1003P
714.427	0.017	516234	REC_END	n/a	n/a	n/a	n/a	4	-999	n/a	n/a	-999	6	[0, 0, 0]	n/a	0	1	0	n/a	n/a	0.0	0	0	0	PAL2	0	R1003P
714.444	0.25	516242	TEST_ORIENT	n/a	n/a	TOAD	BALL	5	3	BALL	n/a	0	6	[0, 0, 0]	n/a	0	1	0	n/a	n/a	0.0	0	0	0	PAL2	0	R1003P
715.073	4.6	516557	STIM_ON	n/a	n/a	TOAD	BALL	5	3	BALL	n/a	0	6	[0, 0, 0]	n/a	1	1	4600	DA1	DA2	1500.0	50	230	300	PAL2	0	R1003P
715.278	0.0	516659	REC_START	n/a	n/a	n/a	n/a	5	-999	n/a	n/a	0	6	[0, 0, 0]	n/a	1	1	4600	DA1	DA2	1500.0	50	230	300	PAL2	0	R1003P
715.278	4.0	516659	TEST_PROBE	n/a	wordpools/wordpool_EN.txt	TOAD	BALL	5	3	BALL	n/a	0	6	[0, 0, 0]	n/a	1	1	4600	DA1	DA2	1500.0	50	230	300	PAL2	0	R1003P
720.293	0.002	519166	REC_EVENT	5.015	n/a	TOAD	BALL	5	3	BALL	<>	0	6	[0, 0, 0]	n/a	0	1	0	n/a	n/a	0.0	0	0	0	PAL2	0	R1003P
720.295	0.017	519167	REC_END	n/a	n/a	n/a	n/a	5	-999	n/a	n/a	-999	6	[0, 0, 0]	n/a	0	1	0	n/a	n/a	0.0	0	0	0	PAL2	0	R1003P
720.312	0.25	519176	TEST_ORIENT	n/a	n/a	PIPE	WING	2	4	PIPE	n/a	0	6	[0, 0, 0]	n/a	0	1	0	n/a	n/a	0.0	0	0	0	PAL2	0	R1003P
721.279	4.0	519659	TEST_PROBE	n/a	wordpools/wordpool_EN.txt	PIPE	WING	2	4	PIPE	n/a	0	6	[0, 0, 0]	n/a	0	1	0	n/a	n/a	0.0	0	0	0	PAL2	0	R1003P
721.279	5.015	519659	REC_START	n/a	n/a	n/a	n/a	2	-999	n/a	n/a	0	6	[0, 0, 0]	n/a	0	1	0	n/a	n/a	0.0	0	0	0	PAL2	0	R1003P
726.294	0.002	522167	REC_EVENT	5.015	n/a	PIPE	WING	2	4	PIPE	<>	0	6	[0, 0, 0]	n/a	0	1	0	n/a	n/a	0.0	0	0	0	PAL2	0	R1003P
726.296	0.017	522168	REC_END	n/a	n/a	n/a	n/a	2	-999	n/a	n/a	-999	6	[0, 0, 0]	n/a	0	1	0	n/a	n/a	0.0	0	0	0	PAL2	0	R1003P
726.313	0.25	522176	TEST_ORIENT	n/a	n/a	SCHOOL	POOL	1	5	SCHOOL	POOL	1	6	[0, 0, 0]	n/a	0	1	0	n/a	n/a	0.0	0	0	0	PAL2	0	R1003P
727.015	4.6	522527	STIM_ON	n/a	n/a	SCHOOL	POOL	1	5	SCHOOL	POOL	1	6	[0, 0, 0]	n/a	1	1	4600	DA1	DA2	1500.0	50	230	300	PAL2	0	R1003P
727.23	4.0	522635	TEST_PROBE	n/a	wordpools/wordpool_EN.txt	SCHOOL	POOL	1	5	SCHOOL	POOL	1	6	[0, 0, 0]	n/a	1	1	4600	DA1	DA2	1500.0	50	230	300	PAL2	0	R1003P
727.23	0.687	522635	REC_START	n/a	n/a	n/a	n/a	1	-999	n/a	POOL	1	6	[0, 0, 0]	n/a	1	1	4600	DA1	DA2	1500.0	50	230	300	PAL2	0	R1003P
727.917	4.33	522978	REC_EVENT	0.687	n/a	SCHOOL	POOL	1	5	SCHOOL	POOL	1	6	[0, 0, 0]	n/a	1	1	4600	DA1	DA2	1500.0	50	230	300	PAL2	0	R1003P
732.247	0.017	525143	REC_END	n/a	n/a	n/a	n/a	1	-999	n/a	n/a	-999	6	[0, 0, 0]	n/a	0	1	0	n/a	n/a	0.0	0	0	0	PAL2	0	R1003P
732.264	0.25	525152	TEST_ORIENT	n/a	n/a	TOE	FLAME	6	6	TOE	n/a	0	6	[0, 0, 0]	n/a	0	1	0	n/a	n/a	0.0	0	0	0	PAL2	0	R1003P
733.181	4.0	525610	TEST_PROBE	n/a	wordpools/wordpool_EN.txt	TOE	FLAME	6	6	TOE	n/a	0	6	[0, 0, 0]	n/a	0	1	0	n/a	n/a	0.0	0	0	0	PAL2	0	R1003P
733.181	5.015	525610	REC_START	n/a	n/a	n/a	n/a	6	-999	n/a	n/a	0	6	[0, 0, 0]	n/a	0	1	0	n/a	n/a	0.0	0	0	0	PAL2	0	R1003P
738.196	0.003	528117	REC_EVENT	5.015	n/a	TOE	FLAME	6	6	TOE	<>	0	6	[0, 0, 0]	n/a	0	1	0	n/a	n/a	0.0	0	0	0	PAL2	0	R1003P
738.199	0.96	528119	REC_END	n/a	n/a	n/a	n/a	6	-999	n/a	n/a	-999	6	[0, 0, 0]	n/a	0	1	0	n/a	n/a	0.0	0	0	0	PAL2	0	R1003P
739.159	10.442	528599	ENCODING_START	n/a	n/a	n/a	n/a	0	-999	n/a	n/a	-999	7	[0, 0, 0]	n/a	0	1	0	n/a	n/a	0.0	0	0	0	PAL2	0	R1003P
749.601	0.25	533820	STUDY_ORIENT	n/a	n/a	EAR	PIN	1	3	PIN	n/a	0	7	[0, 0, 0]	n/a	0	1	0	n/a	n/a	0.0	0	0	0	PAL2	0	R1003P
750.618	4.0	534328	STUDY_PAIR	n/a	wordpools/wordpool_EN.txt	EAR	PIN	1	3	PIN	n/a	0	7	[0, 0, 0]	n/a	0	1	0	n/a	n/a	0.0	0	0	0	PAL2	0	R1003P
755.652	0.25	536845	STUDY_ORIENT	n/a	n/a	CLOUD	PURSE	2	6	CLOUD	n/a	0	7	[0, 0, 0]	n/a	0	1	0	n/a	n/a	0.0	0	0	0	PAL2	0	R1003P
756.408	4.6	537223	STIM_ON	n/a	n/a	CLOUD	PURSE	2	6	CLOUD	n/a	0	7	[0, 0, 0]	n/a	1	1	4600	DA1	DA2	1500.0	50	230	300	PAL2	0	R1003P
756.619	4.0	537328	STUDY_PAIR	n/a	wordpools/wordpool_EN.txt	CLOUD	PURSE	2	6	CLOUD	n/a	0	7	[0, 0, 0]	n/a	1	1	4600	DA1	DA2	1500.0	50	230	300	PAL2	0	R1003P
761.653	0.25	539845	STUDY_ORIENT	n/a	n/a	STRAW	PIE	3	5	PIE	n/a	0	7	[0, 0, 0]	n/a	0	1	0	n/a	n/a	0.0	0	0	0	PAL2	0	R1003P
762.487	4.0	540262	STUDY_PAIR	n/a	wordpools/wordpool_EN.txt	STRAW	PIE	3	5	PIE	n/a	0	7	[0, 0, 0]	n/a	0	1	0	n/a	n/a	0.0	0	0	0	PAL2	0	R1003P
767.521	0.25	542779	STUDY_ORIENT	n/a	n/a	SKUNK	PEACH	4	2	SKUNK	n/a	0	7	[0, 0, 0]	n/a	0	1	0	n/a	n/a	0.0	0	0	0	PAL2	0	R1003P
768.263	4.6	543150	STIM_ON	n/a	n/a	SKUNK	PEACH	4	2	SKUNK	n/a	0	7	[0, 0, 0]	n/a	1	1	4600	DA1	DA2	1500.0	50	230	300	PAL2	0	R1003P
768.471	4.0	543254	STUDY_PAIR	n/a	wordpools/wordpool_EN.txt	SKUNK	PEACH	4	2	SKUNK	n/a	0	7	[0, 0, 0]	n/a	1	1	4600	DA1	DA2	1500.0	50	230	300	PAL2	0	R1003P
773.489	0.25	545763	STUDY_ORIENT	n/a	n/a	GLOVE	ROOF	5	1	GLOVE	HAND	0	7	[0, 0, 0]	n/a	0	1	0	n/a	n/a	0.0	0	0	0	PAL2	0	R1003P
774.339	4.0	546188	STUDY_PAIR	n/a	wordpools/wordpool_EN.txt	GLOVE	ROOF	5	1	GLOVE	HAND	0	7	[0, 0, 0]	n/a	0	1	0	n/a	n/a	0.0	0	0	0	PAL2	0	R1003P
779.373	0.25	548705	STUDY_ORIENT	n/a	n/a	BENCH	BAND	6	4	BENCH	TOE	0	7	[0, 0, 0]	n/a	0	1	0	n/a	n/a	0.0	0	0	0	PAL2	0	R1003P
780.0	4.6	549018	STIM_ON	n/a	n/a	BENCH	BAND	6	4	BENCH	TOE	0	7	[0, 0, 0]	n/a	1	1	4600	DA1	DA2	1500.0	50	230	300	PAL2	0	R1003P
780.207	4.0	549122	STUDY_PAIR	n/a	wordpools/wordpool_EN.txt	BENCH	BAND	6	4	BENCH	TOE	0	7	[0, 0, 0]	n/a	1	1	4600	DA1	DA2	1500.0	50	230	300	PAL2	0	R1003P
784.225	0.999	551131	START	n/a	n/a	n/a	n/a	-999	-999	n/a	n/a	-999	7	[-999, -999, -999]	n/a	0	1	0	n/a	n/a	0.0	0	0	0	PAL2	0	R1003P
785.224	0.017	551630	MATH_START	n/a	n/a	n/a	n/a	-999	-999	n/a	n/a	-999	7	[0, 0, 0]	n/a	0	1	0	n/a	n/a	0.0	0	0	0	PAL2	0	R1003P
785.241	3.151	551639	PROB	3.127	n/a	n/a	n/a	-999	-999	n/a	n/a	-999	7	[5, 4, 9]	18	0	1	0	n/a	n/a	0.0	0	0	0	PAL2	0	R1003P
788.392	3.084	553214	PROB	3.064	n/a	n/a	n/a	-999	-999	n/a	n/a	-999	7	[4, 5, 8]	17	0	1	0	n/a	n/a	0.0	0	0	0	PAL2	0	R1003P
791.476	2.632	554756	PROB	2.611	n/a	n/a	n/a	-999	-999	n/a	n/a	-999	7	[9, 8, 1]	18	0	1	0	n/a	n/a	0.0	0	0	0	PAL2	0	R1003P
794.108	3.769	556072	PROB	3.748	n/a	n/a	n/a	-999	-999	n/a	n/a	-999	7	[9, 8, 1]	18	0	1	0	n/a	n/a	0.0	0	0	0	PAL2	0	R1003P
797.877	4.534	557956	PROB	4.515	n/a	n/a	n/a	-999	-999	n/a	n/a	-999	7	[6, 3, 7]	16	0	1	0	n/a	n/a	0.0	0	0	0	PAL2	0	R1003P
802.411	7.493	560223	PROB	7.493	n/a	n/a	n/a	-999	-999	n/a	n/a	-999	7	[8, 9, 7]	23	0	1	0	n/a	n/a	0.0	0	0	0	PAL2	0	R1003P
809.904	0.008	563970	STOP	n/a	n/a	n/a	n/a	-999	-999	n/a	n/a	-999	7	[-999, -999, -999]	n/a	0	1	0	n/a	n/a	0.0	0	0	0	PAL2	0	R1003P
809.912	0.0	563974	MATH_END	n/a	n/a	n/a	n/a	-999	-999	n/a	n/a	-999	7	[0, 0, 0]	n/a	0	1	0	n/a	n/a	0.0	0	0	0	PAL2	0	R1003P
809.912	0.017	563974	TEST_START	n/a	n/a	n/a	n/a	-999	-999	n/a	n/a	-999	7	[0, 0, 0]	n/a	0	1	0	n/a	n/a	0.0	0	0	0	PAL2	0	R1003P
809.929	0.25	563982	TEST_ORIENT	n/a	n/a	GLOVE	ROOF	5	1	GLOVE	HAND	0	7	[0, 0, 0]	n/a	0	1	0	n/a	n/a	0.0	0	0	0	PAL2	0	R1003P
810.896	4.0	564466	TEST_PROBE	n/a	wordpools/wordpool_EN.txt	GLOVE	ROOF	5	1	GLOVE	HAND	0	7	[0, 0, 0]	n/a	0	1	0	n/a	n/a	0.0	0	0	0	PAL2	0	R1003P
810.897	3.516	564466	REC_START	n/a	n/a	n/a	n/a	5	-999	n/a	HAND	0	7	[0, 0, 0]	n/a	0	1	0	n/a	n/a	0.0	0	0	0	PAL2	0	R1003P
814.413	1.5	566224	REC_EVENT	3.516	n/a	GLOVE	ROOF	5	1	GLOVE	HAND	0	7	[0, 0, 0]	n/a	0	1	0	n/a	n/a	0.0	0	0	0	PAL2	0	R1003P
815.913	0.017	566974	REC_END	n/a	n/a	n/a	n/a	5	-999	n/a	n/a	-999	7	[0, 0, 0]	n/a	0	1	0	n/a	n/a	0.0	0	0	0	PAL2	0	R1003P
815.93	0.25	566982	TEST_ORIENT	n/a	n/a	SKUNK	PEACH	4	2	SKUNK	n/a	0	7	[0, 0, 0]	n/a	0	1	0	n/a	n/a	0.0	0	0	0	PAL2	0	R1003P
816.914	4.0	567474	TEST_PROBE	n/a	wordpools/wordpool_EN.txt	SKUNK	PEACH	4	2	SKUNK	n/a	0	7	[0, 0, 0]	n/a	0	1	0	n/a	n/a	0.0	0	0	0	PAL2	0	R1003P
816.914	5.015	567474	REC_START	n/a	n/a	n/a	n/a	4	-999	n/a	n/a	0	7	[0, 0, 0]	n/a	0	1	0	n/a	n/a	0.0	0	0	0	PAL2	0	R1003P
821.929	0.002	569982	REC_EVENT	5.015	n/a	SKUNK	PEACH	4	2	SKUNK	<>	0	7	[0, 0, 0]	n/a	0	1	0	n/a	n/a	0.0	0	0	0	PAL2	0	R1003P
821.931	0.017	569983	REC_END	n/a	n/a	n/a	n/a	4	-999	n/a	n/a	-999	7	[0, 0, 0]	n/a	0	1	0	n/a	n/a	0.0	0	0	0	PAL2	0	R1003P
821.948	0.25	569991	TEST_ORIENT	n/a	n/a	EAR	PIN	1	3	PIN	n/a	0	7	[0, 0, 0]	n/a	0	1	0	n/a	n/a	0.0	0	0	0	PAL2	0	R1003P
822.915	4.0	570475	TEST_PROBE	n/a	wordpools/wordpool_EN.txt	EAR	PIN	1	3	PIN	n/a	0	7	[0, 0, 0]	n/a	0	1	0	n/a	n/a	0.0	0	0	0	PAL2	0	R1003P
822.915	5.015	570475	REC_START	n/a	n/a	n/a	n/a	1	-999	n/a	n/a	0	7	[0, 0, 0]	n/a	0	1	0	n/a	n/a	0.0	0	0	0	PAL2	0	R1003P
827.93	0.002	572982	REC_EVENT	5.015	n/a	EAR	PIN	1	3	PIN	<>	0	7	[0, 0, 0]	n/a	0	1	0	n/a	n/a	0.0	0	0	0	PAL2	0	R1003P
827.932	0.017	572983	REC_END	n/a	n/a	n/a	n/a	1	-999	n/a	n/a	-999	7	[0, 0, 0]	n/a	0	1	0	n/a	n/a	0.0	0	0	0	PAL2	0	R1003P
827.949	0.25	572992	TEST_ORIENT	n/a	n/a	BENCH	BAND	6	4	BENCH	TOE	0	7	[0, 0, 0]	n/a	0	1	0	n/a	n/a	0.0	0	0	0	PAL2	0	R1003P
828.816	4.0	573425	TEST_PROBE	n/a	wordpools/wordpool_EN.txt	BENCH	BAND	6	4	BENCH	TOE	0	7	[0, 0, 0]	n/a	0	1	0	n/a	n/a	0.0	0	0	0	PAL2	0	R1003P
828.817	3.589	573426	REC_START	n/a	n/a	n/a	n/a	6	-999	n/a	TOE	0	7	[0, 0, 0]	n/a	0	1	0	n/a	n/a	0.0	0	0	0	PAL2	0	R1003P
832.406	1.419	575220	REC_EVENT	3.589	n/a	BENCH	BAND	6	4	BENCH	TOE	0	7	[0, 0, 0]	n/a	0	1	0	n/a	n/a	0.0	0	0	0	PAL2	0	R1003P
833.825	0.009	575929	REC_END	n/a	n/a	n/a	n/a	6	-999	n/a	n/a	-999	7	[0, 0, 0]	n/a	0	1	0	n/a	n/a	0.0	0	0	0	PAL2	0	R1003P
833.834	0.25	575934	TEST_ORIENT	n/a	n/a	STRAW	PIE	3	5	PIE	n/a	0	7	[0, 0, 0]	n/a	0	1	0	n/a	n/a	0.0	0	0	0	PAL2	0	R1003P
834.784	4.0	576409	TEST_PROBE	n/a	wordpools/wordpool_EN.txt	STRAW	PIE	3	5	PIE	n/a	0	7	[0, 0, 0]	n/a	0	1	0	n/a	n/a	0.0	0	0	0	PAL2	0	R1003P
834.785	5.015	576409	REC_START	n/a	n/a	n/a	n/a	3	-999	n/a	n/a	0	7	[0, 0, 0]	n/a	0	1	0	n/a	n/a	0.0	0	0	0	PAL2	0	R1003P
839.8	0.001	578917	REC_EVENT	5.015	n/a	STRAW	PIE	3	5	PIE	<>	0	7	[0, 0, 0]	n/a	0	1	0	n/a	n/a	0.0	0	0	0	PAL2	0	R1003P
839.801	0.017	578917	REC_END	n/a	n/a	n/a	n/a	3	-999	n/a	n/a	-999	7	[0, 0, 0]	n/a	0	1	0	n/a	n/a	0.0	0	0	0	PAL2	0	R1003P
839.818	0.25	578926	TEST_ORIENT	n/a	n/a	CLOUD	PURSE	2	6	CLOUD	n/a	0	7	[0, 0, 0]	n/a	0	1	0	n/a	n/a	0.0	0	0	0	PAL2	0	R1003P
840.852	4.0	579443	TEST_PROBE	n/a	wordpools/wordpool_EN.txt	CLOUD	PURSE	2	6	CLOUD	n/a	0	7	[0, 0, 0]	n/a	0	1	0	n/a	n/a	0.0	0	0	0	PAL2	0	R1003P
840.852	5.015	579443	REC_START	n/a	n/a	n/a	n/a	2	-999	n/a	n/a	0	7	[0, 0, 0]	n/a	0	1	0	n/a	n/a	0.0	0	0	0	PAL2	0	R1003P
845.867	0.003	581950	REC_EVENT	5.015	n/a	CLOUD	PURSE	2	6	CLOUD	<>	0	7	[0, 0, 0]	n/a	0	1	0	n/a	n/a	0.0	0	0	0	PAL2	0	R1003P
845.87	1.09	581952	REC_END	n/a	n/a	n/a	n/a	2	-999	n/a	n/a	-999	7	[0, 0, 0]	n/a	0	1	0	n/a	n/a	0.0	0	0	0	PAL2	0	R1003P
846.96	10.445	582497	ENCODING_START	n/a	n/a	n/a	n/a	0	-999	n/a	n/a	-999	8	[0, 0, 0]	n/a	0	1	0	n/a	n/a	0.0	0	0	0	PAL2	0	R1003P
857.405	0.25	587719	STUDY_ORIENT	n/a	n/a	SHOE	SNOW	1	3	SNOW	EAT	0	8	[0, 0, 0]	n/a	0	1	0	n/a	n/a	0.0	0	0	0	PAL2	0	R1003P
858.18	4.6	588106	STIM_ON	n/a	n/a	SHOE	SNOW	1	3	SNOW	EAT	0	8	[0, 0, 0]	n/a	1	1	4600	DA1	DA2	1500.0	50	230	300	PAL2	0	R1003P
858.389	4.0	588211	STUDY_PAIR	n/a	wordpools/wordpool_EN.txt	SHOE	SNOW	1	3	SNOW	EAT	0	8	[0, 0, 0]	n/a	1	1	4600	DA1	DA2	1500.0	50	230	300	PAL2	0	R1003P
863.423	0.25	590728	STUDY_ORIENT	n/a	n/a	ROAD	MILK	2	6	MILK	n/a	0	8	[0, 0, 0]	n/a	0	1	0	n/a	n/a	0.0	0	0	0	PAL2	0	R1003P
864.223	4.0	591128	STUDY_PAIR	n/a	wordpools/wordpool_EN.txt	ROAD	MILK	2	6	MILK	n/a	0	8	[0, 0, 0]	n/a	0	1	0	n/a	n/a	0.0	0	0	0	PAL2	0	R1003P
869.257	0.25	593645	STUDY_ORIENT	n/a	n/a	HOSE	NOSE	3	1	NOSE	n/a	0	8	[0, 0, 0]	n/a	0	1	0	n/a	n/a	0.0	0	0	0	PAL2	0	R1003P
869.913	4.6	593973	STIM_ON	n/a	n/a	HOSE	NOSE	3	1	NOSE	n/a	0	8	[0, 0, 0]	n/a	1	1	4600	DA1	DA2	1500.0	50	230	300	PAL2	0	R1003P
870.123	4.0	594078	STUDY_PAIR	n/a	wordpools/wordpool_EN.txt	HOSE	NOSE	3	1	NOSE	n/a	0	8	[0, 0, 0]	n/a	1	1	4600	DA1	DA2	1500.0	50	230	300	PAL2	0	R1003P
875.141	0.25	596586	STUDY_ORIENT	n/a	n/a	EGG	BOAT	4	2	EGG	n/a	0	8	[0, 0, 0]	n/a	0	1	0	n/a	n/a	0.0	0	0	0	PAL2	0	R1003P
875.959	4.0	596995	STUDY_PAIR	n/a	wordpools/wordpool_EN.txt	EGG	BOAT	4	2	EGG	n/a	0	8	[0, 0, 0]	n/a	0	1	0	n/a	n/a	0.0	0	0	0	PAL2	0	R1003P
880.993	0.25	599512	STUDY_ORIENT	n/a	n/a	BOARD	CRANE	5	5	CRANE	EGG	0	8	[0, 0, 0]	n/a	0	1	0	n/a	n/a	0.0	0	0	0	PAL2	0	R1003P
881.635	4.6	599833	STIM_ON	n/a	n/a	BOARD	CRANE	5	5	CRANE	EGG	0	8	[0, 0, 0]	n/a	1	1	4600	DA1	DA2	1500.0	50	230	300	PAL2	0	R1003P
881.843	4.0	599937	STUDY_PAIR	n/a	wordpools/wordpool_EN.txt	BOARD	CRANE	5	5	CRANE	EGG	0	8	[0, 0, 0]	n/a	1	1	4600	DA1	DA2	1500.0	50	230	300	PAL2	0	R1003P
886.877	0.25	602454	STUDY_ORIENT	n/a	n/a	RAT	DESK	6	4	RAT	TAIL	0	8	[0, 0, 0]	n/a	0	1	0	n/a	n/a	0.0	0	0	0	PAL2	0	R1003P
887.761	4.0	602896	STUDY_PAIR	n/a	wordpools/wordpool_EN.txt	RAT	DESK	6	4	RAT	TAIL	0	8	[0, 0, 0]	n/a	0	1	0	n/a	n/a	0.0	0	0	0	PAL2	0	R1003P
891.779	0.999	604905	START	n/a	n/a	n/a	n/a	-999	-999	n/a	n/a	-999	8	[-999, -999, -999]	n/a	0	1	0	n/a	n/a	0.0	0	0	0	PAL2	0	R1003P
892.778	0.017	605404	MATH_START	n/a	n/a	n/a	n/a	-999	-999	n/a	n/a	-999	8	[0, 0, 0]	n/a	0	1	0	n/a	n/a	0.0	0	0	0	PAL2	0	R1003P
892.795	2.951	605413	PROB	2.917	n/a	n/a	n/a	-999	-999	n/a	n/a	-999	8	[1, 8, 2]	11	0	1	0	n/a	n/a	0.0	0	0	0	PAL2	0	R1003P
895.746	4.234	606888	PROB	4.214	n/a	n/a	n/a	-999	-999	n/a	n/a	-999	8	[7, 4, 1]	12	0	1	0	n/a	n/a	0.0	0	0	0	PAL2	0	R1003P
899.98	2.484	609005	PROB	2.452	n/a	n/a	n/a	-999	-999	n/a	n/a	-999	8	[1, 5, 1]	7	0	1	0	n/a	n/a	0.0	0	0	0	PAL2	0	R1003P
902.464	2.083	610247	PROB	2.064	n/a	n/a	n/a	-999	-999	n/a	n/a	-999	8	[2, 2, 1]	5	0	1	0	n/a	n/a	0.0	0	0	0	PAL2	0	R1003P
904.547	2.318	611289	PROB	2.285	n/a	n/a	n/a	-999	-999	n/a	n/a	-999	8	[7, 1, 4]	12	0	1	0	n/a	n/a	0.0	0	0	0	PAL2	0	R1003P
906.865	3.299	612448	PROB	3.278	n/a	n/a	n/a	-999	-999	n/a	n/a	-999	8	[2, 1, 2]	5	0	1	0	n/a	n/a	0.0	0	0	0	PAL2	0	R1003P
910.164	3.987	614097	PROB	3.987	n/a	n/a	n/a	-999	-999	n/a	n/a	-999	8	[9, 9, 9]	27	0	1	0	n/a	n/a	0.0	0	0	0	PAL2	0	R1003P
914.151	0.014	616090	STOP	n/a	n/a	n/a	n/a	-999	-999	n/a	n/a	-999	8	[-999, -999, -999]	n/a	0	1	0	n/a	n/a	0.0	0	0	0	PAL2	0	R1003P
914.165	0.0	616097	MATH_END	n/a	n/a	n/a	n/a	-999	-999	n/a	n/a	-999	8	[0, 0, 0]	n/a	0	1	0	n/a	n/a	0.0	0	0	0	PAL2	0	R1003P
914.165	0.018	616097	TEST_START	n/a	n/a	n/a	n/a	-999	-999	n/a	n/a	-999	8	[0, 0, 0]	n/a	0	1	0	n/a	n/a	0.0	0	0	0	PAL2	0	R1003P
914.183	0.25	616106	TEST_ORIENT	n/a	n/a	HOSE	NOSE	3	1	NOSE	n/a	0	8	[0, 0, 0]	n/a	0	1	0	n/a	n/a	0.0	0	0	0	PAL2	0	R1003P
915.033	4.0	616531	TEST_PROBE	n/a	wordpools/wordpool_EN.txt	HOSE	NOSE	3	1	NOSE	n/a	0	8	[0, 0, 0]	n/a	0	1	0	n/a	n/a	0.0	0	0	0	PAL2	0	R1003P
915.034	5.015	616532	REC_START	n/a	n/a	n/a	n/a	3	-999	n/a	n/a	0	8	[0, 0, 0]	n/a	0	1	0	n/a	n/a	0.0	0	0	0	PAL2	0	R1003P
920.049	0.001	619039	REC_EVENT	5.015	n/a	HOSE	NOSE	3	1	NOSE	<>	0	8	[0, 0, 0]	n/a	0	1	0	n/a	n/a	0.0	0	0	0	PAL2	0	R1003P
920.05	0.016	619040	REC_END	n/a	n/a	n/a	n/a	3	-999	n/a	n/a	-999	8	[0, 0, 0]	n/a	0	1	0	n/a	n/a	0.0	0	0	0	PAL2	0	R1003P
920.066	0.25	619048	TEST_ORIENT	n/a	n/a	EGG	BOAT	4	2	EGG	n/a	0	8	[0, 0, 0]	n/a	0	1	0	n/a	n/a	0.0	0	0	0	PAL2	0	R1003P
921.051	0.0	619540	REC_START	n/a	n/a	n/a	n/a	4	-999	n/a	n/a	0	8	[0, 0, 0]	n/a	0	1	0	n/a	n/a	0.0	0	0	0	PAL2	0	R1003P
921.051	4.0	619540	TEST_PROBE	n/a	wordpools/wordpool_EN.txt	EGG	BOAT	4	2	EGG	n/a	0	8	[0, 0, 0]	n/a	0	1	0	n/a	n/a	0.0	0	0	0	PAL2	0	R1003P
926.066	0.001	622048	REC_EVENT	5.015	n/a	EGG	BOAT	4	2	EGG	<>	0	8	[0, 0, 0]	n/a	0	1	0	n/a	n/a	0.0	0	0	0	PAL2	0	R1003P
926.067	0.017	622048	REC_END	n/a	n/a	n/a	n/a	4	-999	n/a	n/a	-999	8	[0, 0, 0]	n/a	0	1	0	n/a	n/a	0.0	0	0	0	PAL2	0	R1003P
926.084	0.25	622057	TEST_ORIENT	n/a	n/a	SHOE	SNOW	1	3	SNOW	EAT	0	8	[0, 0, 0]	n/a	0	1	0	n/a	n/a	0.0	0	0	0	PAL2	0	R1003P
927.002	4.0	622516	TEST_PROBE	n/a	wordpools/wordpool_EN.txt	SHOE	SNOW	1	3	SNOW	EAT	0	8	[0, 0, 0]	n/a	0	1	0	n/a	n/a	0.0	0	0	0	PAL2	0	R1003P
927.002	2.415	622516	REC_START	n/a	n/a	n/a	n/a	1	-999	n/a	EAT	0	8	[0, 0, 0]	n/a	0	1	0	n/a	n/a	0.0	0	0	0	PAL2	0	R1003P
929.417	2.602	623723	REC_EVENT	2.415	n/a	SHOE	SNOW	1	3	SNOW	EAT	0	8	[0, 0, 0]	n/a	0	1	0	n/a	n/a	0.0	0	0	0	PAL2	0	R1003P
932.019	0.017	625024	REC_END	n/a	n/a	n/a	n/a	1	-999	n/a	n/a	-999	8	[0, 0, 0]	n/a	0	1	0	n/a	n/a	0.0	0	0	0	PAL2	0	R1003P
932.036	0.25	625032	TEST_ORIENT	n/a	n/a	RAT	DESK	6	4	RAT	TAIL	0	8	[0, 0, 0]	n/a	0	1	0	n/a	n/a	0.0	0	0	0	PAL2	0	R1003P
932.936	4.0	625482	TEST_PROBE	n/a	wordpools/wordpool_EN.txt	RAT	DESK	6	4	RAT	TAIL	0	8	[0, 0, 0]	n/a	0	1	0	n/a	n/a	0.0	0	0	0	PAL2	0	R1003P
932.937	1.894	625483	REC_START	n/a	n/a	n/a	n/a	6	-999	n/a	TAIL	0	8	[0, 0, 0]	n/a	0	1	0	n/a	n/a	0.0	0	0	0	PAL2	0	R1003P
934.831	3.116	626430	REC_EVENT	1.894	n/a	RAT	DESK	6	4	RAT	TAIL	0	8	[0, 0, 0]	n/a	0	1	0	n/a	n/a	0.0	0	0	0	PAL2	0	R1003P
937.947	0.007	627988	REC_END	n/a	n/a	n/a	n/a	6	-999	n/a	n/a	-999	8	[0, 0, 0]	n/a	0	1	0	n/a	n/a	0.0	0	0	0	PAL2	0	R1003P
937.954	0.25	627991	TEST_ORIENT	n/a	n/a	BOARD	CRANE	5	5	CRANE	EGG	0	8	[0, 0, 0]	n/a	0	1	0	n/a	n/a	0.0	0	0	0	PAL2	0	R1003P
938.971	0.0	628500	REC_START	n/a	n/a	n/a	n/a	5	-999	n/a	EGG	0	8	[0, 0, 0]	n/a	0	1	0	n/a	n/a	0.0	0	0	0	PAL2	0	R1003P
938.971	4.0	628500	TEST_PROBE	n/a	wordpools/wordpool_EN.txt	BOARD	CRANE	5	5	CRANE	EGG	0	8	[0, 0, 0]	n/a	0	1	0	n/a	n/a	0.0	0	0	0	PAL2	0	R1003P
941.478	2.51	629753	REC_EVENT	2.507	n/a	BOARD	CRANE	5	5	CRANE	EGG	0	8	[0, 0, 0]	n/a	0	1	0	n/a	n/a	0.0	0	0	0	PAL2	0	R1003P
943.988	0.017	631008	REC_END	n/a	n/a	n/a	n/a	5	-999	n/a	n/a	-999	8	[0, 0, 0]	n/a	0	1	0	n/a	n/a	0.0	0	0	0	PAL2	0	R1003P
944.005	0.25	631017	TEST_ORIENT	n/a	n/a	ROAD	MILK	2	6	MILK	n/a	0	8	[0, 0, 0]	n/a	0	1	0	n/a	n/a	0.0	0	0	0	PAL2	0	R1003P
944.939	4.0	631484	TEST_PROBE	n/a	wordpools/wordpool_EN.txt	ROAD	MILK	2	6	MILK	n/a	0	8	[0, 0, 0]	n/a	0	1	0	n/a	n/a	0.0	0	0	0	PAL2	0	R1003P
944.939	5.015	631484	REC_START	n/a	n/a	n/a	n/a	2	-999	n/a	n/a	0	8	[0, 0, 0]	n/a	0	1	0	n/a	n/a	0.0	0	0	0	PAL2	0	R1003P
949.954	0.002	633991	REC_EVENT	5.015	n/a	ROAD	MILK	2	6	MILK	<>	0	8	[0, 0, 0]	n/a	0	1	0	n/a	n/a	0.0	0	0	0	PAL2	0	R1003P
949.956	0.868	633992	REC_END	n/a	n/a	n/a	n/a	2	-999	n/a	n/a	-999	8	[0, 0, 0]	n/a	0	1	0	n/a	n/a	0.0	0	0	0	PAL2	0	R1003P
950.824	10.451	634426	ENCODING_START	n/a	n/a	n/a	n/a	0	-999	n/a	n/a	-999	9	[0, 0, 0]	n/a	0	1	0	n/a	n/a	0.0	0	0	0	PAL2	0	R1003P
961.275	0.25	639651	STUDY_ORIENT	n/a	n/a	RAIN	EEL	1	5	EEL	n/a	0	9	[0, 0, 0]	n/a	0	1	0	n/a	n/a	0.0	0	0	0	PAL2	0	R1003P
961.974	4.6	640001	STIM_ON	n/a	n/a	RAIN	EEL	1	5	EEL	n/a	0	9	[0, 0, 0]	n/a	1	1	4600	DA1	DA2	1500.0	50	230	300	PAL2	0	R1003P
962.192	4.0	640110	STUDY_PAIR	n/a	wordpools/wordpool_EN.txt	RAIN	EEL	1	5	EEL	n/a	0	9	[0, 0, 0]	n/a	1	1	4600	DA1	DA2	1500.0	50	230	300	PAL2	0	R1003P
967.226	0.25	642627	STUDY_ORIENT	n/a	n/a	MOON	CUP	2	4	CUP	n/a	0	9	[0, 0, 0]	n/a	0	1	0	n/a	n/a	0.0	0	0	0	PAL2	0	R1003P
968.226	4.0	643126	STUDY_PAIR	n/a	wordpools/wordpool_EN.txt	MOON	CUP	2	4	CUP	n/a	0	9	[0, 0, 0]	n/a	0	1	0	n/a	n/a	0.0	0	0	0	PAL2	0	R1003P
973.244	0.25	645635	STUDY_ORIENT	n/a	n/a	TAIL	COIN	3	3	TAIL	n/a	0	9	[0, 0, 0]	n/a	0	1	0	n/a	n/a	0.0	0	0	0	PAL2	0	R1003P
973.84	4.6	645933	STIM_ON	n/a	n/a	TAIL	COIN	3	3	TAIL	n/a	0	9	[0, 0, 0]	n/a	1	1	4600	DA1	DA2	1500.0	50	230	300	PAL2	0	R1003P
974.044	4.0	646035	STUDY_PAIR	n/a	wordpools/wordpool_EN.txt	TAIL	COIN	3	3	TAIL	n/a	0	9	[0, 0, 0]	n/a	1	1	4600	DA1	DA2	1500.0	50	230	300	PAL2	0	R1003P
979.061	0.25	648544	STUDY_ORIENT	n/a	n/a	FRUIT	VAN	4	2	VAN	n/a	0	9	[0, 0, 0]	n/a	0	1	0	n/a	n/a	0.0	0	0	0	PAL2	0	R1003P
979.995	4.0	649011	STUDY_PAIR	n/a	wordpools/wordpool_EN.txt	FRUIT	VAN	4	2	VAN	n/a	0	9	[0, 0, 0]	n/a	0	1	0	n/a	n/a	0.0	0	0	0	PAL2	0	R1003P
985.03	0.25	651528	STUDY_ORIENT	n/a	n/a	NAIL	TRASH	5	1	TRASH	CIRCLE	0	9	[0, 0, 0]	n/a	0	1	0	n/a	n/a	0.0	0	0	0	PAL2	0	R1003P
985.652	4.6	651839	STIM_ON	n/a	n/a	NAIL	TRASH	5	1	TRASH	CIRCLE	0	9	[0, 0, 0]	n/a	1	1	4600	DA1	DA2	1500.0	50	230	300	PAL2	0	R1003P
985.863	4.0	651945	STUDY_PAIR	n/a	wordpools/wordpool_EN.txt	NAIL	TRASH	5	1	TRASH	CIRCLE	0	9	[0, 0, 0]	n/a	1	1	4600	DA1	DA2	1500.0	50	230	300	PAL2	0	R1003P
990.881	0.25	654453	STUDY_ORIENT	n/a	n/a	BOX	LAND	6	6	LAND	n/a	0	9	[0, 0, 0]	n/a	0	1	0	n/a	n/a	0.0	0	0	0	PAL2	0	R1003P
991.798	4.0	654912	STUDY_PAIR	n/a	wordpools/wordpool_EN.txt	BOX	LAND	6	6	LAND	n/a	0	9	[0, 0, 0]	n/a	0	1	0	n/a	n/a	0.0	0	0	0	PAL2	0	R1003P
995.815	1.0	656920	START	n/a	n/a	n/a	n/a	-999	-999	n/a	n/a	-999	9	[-999, -999, -999]	n/a	0	1	0	n/a	n/a	0.0	0	0	0	PAL2	0	R1003P
996.815	0.017	657420	MATH_START	n/a	n/a	n/a	n/a	-999	-999	n/a	n/a	-999	9	[0, 0, 0]	n/a	0	1	0	n/a	n/a	0.0	0	0	0	PAL2	0	R1003P
996.832	3.934	657429	PROB	3.912	n/a	n/a	n/a	-999	-999	n/a	n/a	-999	9	[2, 4, 5]	11	0	1	0	n/a	n/a	0.0	0	0	0	PAL2	0	R1003P
1000.766	2.15	659396	PROB	2.13	n/a	n/a	n/a	-999	-999	n/a	n/a	-999	9	[2, 1, 9]	12	0	1	0	n/a	n/a	0.0	0	0	0	PAL2	0	R1003P
1002.916	2.183	660471	PROB	2.155	n/a	n/a	n/a	-999	-999	n/a	n/a	-999	9	[6, 4, 5]	15	0	1	0	n/a	n/a	0.0	0	0	0	PAL2	0	R1003P
1005.099	2.785	661562	PROB	2.757	n/a	n/a	n/a	-999	-999	n/a	n/a	-999	9	[6, 1, 3]	10	0	1	0	n/a	n/a	0.0	0	0	0	PAL2	0	R1003P
1007.884	4.384	662954	PROB	4.356	n/a	n/a	n/a	-999	-999	n/a	n/a	-999	9	[8, 8, 7]	23	0	1	0	n/a	n/a	0.0	0	0	0	PAL2	0	R1003P
1012.268	3.018	665146	PROB	2.988	n/a	n/a	n/a	-999	-999	n/a	n/a	-999	9	[1, 3, 4]	8	0	1	0	n/a	n/a	0.0	0	0	0	PAL2	0	R1003P
1015.286	3.258	666655	PROB	3.258	n/a	n/a	n/a	-999	-999	n/a	n/a	-999	9	[4, 8, 3]	15	0	1	0	n/a	n/a	0.0	0	0	0	PAL2	0	R1003P
1018.544	0.009	668284	STOP	n/a	n/a	n/a	n/a	-999	-999	n/a	n/a	-999	9	[-999, -999, -999]	n/a	0	1	0	n/a	n/a	0.0	0	0	0	PAL2	0	R1003P
1018.553	0.0	668289	MATH_END	n/a	n/a	n/a	n/a	-999	-999	n/a	n/a	-999	9	[0, 0, 0]	n/a	0	1	0	n/a	n/a	0.0	0	0	0	PAL2	0	R1003P
1018.553	0.016	668289	TEST_START	n/a	n/a	n/a	n/a	-999	-999	n/a	n/a	-999	9	[0, 0, 0]	n/a	0	1	0	n/a	n/a	0.0	0	0	0	PAL2	0	R1003P
1018.569	0.25	668297	TEST_ORIENT	n/a	n/a	NAIL	TRASH	5	1	TRASH	CIRCLE	0	9	[0, 0, 0]	n/a	0	1	0	n/a	n/a	0.0	0	0	0	PAL2	0	R1003P
1019.503	4.0	668764	TEST_PROBE	n/a	wordpools/wordpool_EN.txt	NAIL	TRASH	5	1	TRASH	CIRCLE	0	9	[0, 0, 0]	n/a	0	1	0	n/a	n/a	0.0	0	0	0	PAL2	0	R1003P
1019.503	3.546	668764	REC_START	n/a	n/a	n/a	n/a	5	-999	n/a	CIRCLE	0	9	[0, 0, 0]	n/a	0	1	0	n/a	n/a	0.0	0	0	0	PAL2	0	R1003P
1023.049	1.471	670537	REC_EVENT	3.546	n/a	NAIL	TRASH	5	1	TRASH	CIRCLE	0	9	[0, 0, 0]	n/a	0	1	0	n/a	n/a	0.0	0	0	0	PAL2	0	R1003P
1024.52	0.017	671272	REC_END	n/a	n/a	n/a	n/a	5	-999	n/a	n/a	-999	9	[0, 0, 0]	n/a	0	1	0	n/a	n/a	0.0	0	0	0	PAL2	0	R1003P
1024.537	0.25	671281	TEST_ORIENT	n/a	n/a	FRUIT	VAN	4	2	VAN	n/a	0	9	[0, 0, 0]	n/a	0	1	0	n/a	n/a	0.0	0	0	0	PAL2	0	R1003P
1025.471	4.0	671748	TEST_PROBE	n/a	wordpools/wordpool_EN.txt	FRUIT	VAN	4	2	VAN	n/a	0	9	[0, 0, 0]	n/a	0	1	0	n/a	n/a	0.0	0	0	0	PAL2	0	R1003P
1025.471	5.017	671748	REC_START	n/a	n/a	n/a	n/a	4	-999	n/a	n/a	0	9	[0, 0, 0]	n/a	0	1	0	n/a	n/a	0.0	0	0	0	PAL2	0	R1003P
1030.488	0.004	674256	REC_END	n/a	n/a	n/a	n/a	4	-999	n/a	n/a	-999	9	[0, 0, 0]	n/a	0	1	0	n/a	n/a	0.0	0	0	0	PAL2	0	R1003P
1030.492	0.013	674258	REC_EVENT	5.021	n/a	FRUIT	VAN	4	2	VAN	<>	0	9	[0, 0, 0]	n/a	0	1	0	n/a	n/a	0.0	0	0	0	PAL2	0	R1003P
1030.505	0.25	674264	TEST_ORIENT	n/a	n/a	TAIL	COIN	3	3	TAIL	n/a	0	9	[0, 0, 0]	n/a	0	1	0	n/a	n/a	0.0	0	0	0	PAL2	0	R1003P
1031.389	4.0	674706	TEST_PROBE	n/a	wordpools/wordpool_EN.txt	TAIL	COIN	3	3	TAIL	n/a	0	9	[0, 0, 0]	n/a	0	1	0	n/a	n/a	0.0	0	0	0	PAL2	0	R1003P
1031.39	5.026	674707	REC_START	n/a	n/a	n/a	n/a	3	-999	n/a	n/a	0	9	[0, 0, 0]	n/a	0	1	0	n/a	n/a	0.0	0	0	0	PAL2	0	R1003P
1036.416	0.001	677220	REC_END	n/a	n/a	n/a	n/a	3	-999	n/a	n/a	-999	9	[0, 0, 0]	n/a	0	1	0	n/a	n/a	0.0	0	0	0	PAL2	0	R1003P
1036.417	0.006	677220	REC_EVENT	5.027	n/a	TAIL	COIN	3	3	TAIL	<>	0	9	[0, 0, 0]	n/a	0	1	0	n/a	n/a	0.0	0	0	0	PAL2	0	R1003P
1036.423	0.25	677223	TEST_ORIENT	n/a	n/a	MOON	CUP	2	4	CUP	n/a	0	9	[0, 0, 0]	n/a	0	1	0	n/a	n/a	0.0	0	0	0	PAL2	0	R1003P
1037.456	4.0	677740	TEST_PROBE	n/a	wordpools/wordpool_EN.txt	MOON	CUP	2	4	CUP	n/a	0	9	[0, 0, 0]	n/a	0	1	0	n/a	n/a	0.0	0	0	0	PAL2	0	R1003P
1037.457	5.009	677740	REC_START	n/a	n/a	n/a	n/a	2	-999	n/a	n/a	0	9	[0, 0, 0]	n/a	0	1	0	n/a	n/a	0.0	0	0	0	PAL2	0	R1003P
1042.466	0.001	680245	REC_EVENT	5.009	n/a	MOON	CUP	2	4	CUP	<>	0	9	[0, 0, 0]	n/a	0	1	0	n/a	n/a	0.0	0	0	0	PAL2	0	R1003P
1042.467	0.024	680245	REC_END	n/a	n/a	n/a	n/a	2	-999	n/a	n/a	-999	9	[0, 0, 0]	n/a	0	1	0	n/a	n/a	0.0	0	0	0	PAL2	0	R1003P
1042.491	0.25	680257	TEST_ORIENT	n/a	n/a	RAIN	EEL	1	5	EEL	n/a	0	9	[0, 0, 0]	n/a	0	1	0	n/a	n/a	0.0	0	0	0	PAL2	0	R1003P
1043.308	4.0	680666	TEST_PROBE	n/a	wordpools/wordpool_EN.txt	RAIN	EEL	1	5	EEL	n/a	0	9	[0, 0, 0]	n/a	0	1	0	n/a	n/a	0.0	0	0	0	PAL2	0	R1003P
1043.308	5.015	680666	REC_START	n/a	n/a	n/a	n/a	1	-999	n/a	n/a	0	9	[0, 0, 0]	n/a	0	1	0	n/a	n/a	0.0	0	0	0	PAL2	0	R1003P
1048.323	0.002	683173	REC_EVENT	5.015	n/a	RAIN	EEL	1	5	EEL	<>	0	9	[0, 0, 0]	n/a	0	1	0	n/a	n/a	0.0	0	0	0	PAL2	0	R1003P
1048.325	0.017	683174	REC_END	n/a	n/a	n/a	n/a	1	-999	n/a	n/a	-999	9	[0, 0, 0]	n/a	0	1	0	n/a	n/a	0.0	0	0	0	PAL2	0	R1003P
1048.342	0.25	683182	TEST_ORIENT	n/a	n/a	BOX	LAND	6	6	LAND	n/a	0	9	[0, 0, 0]	n/a	0	1	0	n/a	n/a	0.0	0	0	0	PAL2	0	R1003P
1049.242	4.0	683632	TEST_PROBE	n/a	wordpools/wordpool_EN.txt	BOX	LAND	6	6	LAND	n/a	0	9	[0, 0, 0]	n/a	0	1	0	n/a	n/a	0.0	0	0	0	PAL2	0	R1003P
1049.243	5.016	683633	REC_START	n/a	n/a	n/a	n/a	6	-999	n/a	n/a	0	9	[0, 0, 0]	n/a	0	1	0	n/a	n/a	0.0	0	0	0	PAL2	0	R1003P
1054.259	0.005	686141	REC_END	n/a	n/a	n/a	n/a	6	-999	n/a	n/a	-999	9	[0, 0, 0]	n/a	0	1	0	n/a	n/a	0.0	0	0	0	PAL2	0	R1003P
1054.264	1.04	686143	REC_EVENT	5.021	n/a	BOX	LAND	6	6	LAND	<>	0	9	[0, 0, 0]	n/a	0	1	0	n/a	n/a	0.0	0	0	0	PAL2	0	R1003P
1055.304	10.441	686663	ENCODING_START	n/a	n/a	n/a	n/a	0	-999	n/a	n/a	-999	10	[0, 0, 0]	n/a	0	1	0	n/a	n/a	0.0	0	0	0	PAL2	0	R1003P
1065.745	0.25	691883	STUDY_ORIENT	n/a	n/a	BOOK	STRING	1	1	STRING	PASS	0	10	[0, 0, 0]	n/a	0	1	0	n/a	n/a	0.0	0	0	0	PAL2	0	R1003P
1066.529	4.0	692275	STUDY_PAIR	n/a	wordpools/wordpool_EN.txt	BOOK	STRING	1	1	STRING	PASS	0	10	[0, 0, 0]	n/a	0	1	0	n/a	n/a	0.0	0	0	0	PAL2	0	R1003P
1071.563	0.25	694792	STUDY_ORIENT	n/a	n/a	HORSE	FENCE	2	6	HORSE	STEEL	0	10	[0, 0, 0]	n/a	0	1	0	n/a	n/a	0.0	0	0	0	PAL2	0	R1003P
1072.312	4.6	695167	STIM_ON	n/a	n/a	HORSE	FENCE	2	6	HORSE	STEEL	0	10	[0, 0, 0]	n/a	1	1	4600	DA1	DA2	1500.0	50	230	300	PAL2	0	R1003P
1072.53	4.0	695276	STUDY_PAIR	n/a	wordpools/wordpool_EN.txt	HORSE	FENCE	2	6	HORSE	STEEL	0	10	[0, 0, 0]	n/a	1	1	4600	DA1	DA2	1500.0	50	230	300	PAL2	0	R1003P
1077.564	0.25	697793	STUDY_ORIENT	n/a	n/a	DRUM	TOOL	3	5	TOOL	PASS	0	10	[0, 0, 0]	n/a	0	1	0	n/a	n/a	0.0	0	0	0	PAL2	0	R1003P
1078.464	4.0	698243	STUDY_PAIR	n/a	wordpools/wordpool_EN.txt	DRUM	TOOL	3	5	TOOL	PASS	0	10	[0, 0, 0]	n/a	0	1	0	n/a	n/a	0.0	0	0	0	PAL2	0	R1003P
1083.482	0.25	700752	STUDY_ORIENT	n/a	n/a	LEAF	PASTE	4	4	LEAF	PASS	0	10	[0, 0, 0]	n/a	0	1	0	n/a	n/a	0.0	0	0	0	PAL2	0	R1003P
1084.075	4.6	701048	STIM_ON	n/a	n/a	LEAF	PASTE	4	4	LEAF	PASS	0	10	[0, 0, 0]	n/a	1	1	4600	DA1	DA2	1500.0	50	230	300	PAL2	0	R1003P
1084.282	4.0	701152	STUDY_PAIR	n/a	wordpools/wordpool_EN.txt	LEAF	PASTE	4	4	LEAF	PASS	0	10	[0, 0, 0]	n/a	1	1	4600	DA1	DA2	1500.0	50	230	300	PAL2	0	R1003P
1089.3	0.25	703660	STUDY_ORIENT	n/a	n/a	CHIN	SPARK	5	3	CHIN	PASS	0	10	[0, 0, 0]	n/a	0	1	0	n/a	n/a	0.0	0	0	0	PAL2	0	R1003P
1090.166	4.0	704093	STUDY_PAIR	n/a	wordpools/wordpool_EN.txt	CHIN	SPARK	5	3	CHIN	PASS	0	10	[0, 0, 0]	n/a	0	1	0	n/a	n/a	0.0	0	0	0	PAL2	0	R1003P
1095.201	0.25	706611	STUDY_ORIENT	n/a	n/a	CORD	MOUTH	6	2	MOUTH	CHIN	0	10	[0, 0, 0]	n/a	0	1	0	n/a	n/a	0.0	0	0	0	PAL2	0	R1003P
1095.946	4.6	706983	STIM_ON	n/a	n/a	CORD	MOUTH	6	2	MOUTH	CHIN	0	10	[0, 0, 0]	n/a	1	1	4600	DA1	DA2	1500.0	50	230	300	PAL2	0	R1003P
1096.15	4.0	707085	STUDY_PAIR	n/a	wordpools/wordpool_EN.txt	CORD	MOUTH	6	2	MOUTH	CHIN	0	10	[0, 0, 0]	n/a	1	1	4600	DA1	DA2	1500.0	50	230	300	PAL2	0	R1003P
1100.17	0.997	709095	START	n/a	n/a	n/a	n/a	-999	-999	n/a	n/a	-999	10	[-999, -999, -999]	n/a	0	1	0	n/a	n/a	0.0	0	0	0	PAL2	0	R1003P
1101.167	0.018	709594	MATH_START	n/a	n/a	n/a	n/a	-999	-999	n/a	n/a	-999	10	[0, 0, 0]	n/a	0	1	0	n/a	n/a	0.0	0	0	0	PAL2	0	R1003P
1101.185	4.934	709603	PROB	4.902	n/a	n/a	n/a	-999	-999	n/a	n/a	-999	10	[5, 7, 9]	21	0	1	0	n/a	n/a	0.0	0	0	0	PAL2	0	R1003P
1106.119	2.851	712069	PROB	2.825	n/a	n/a	n/a	-999	-999	n/a	n/a	-999	10	[4, 5, 6]	15	0	1	0	n/a	n/a	0.0	0	0	0	PAL2	0	R1003P
1108.97	5.368	713495	PROB	5.334	n/a	n/a	n/a	-999	-999	n/a	n/a	-999	10	[8, 6, 9]	22	0	1	0	n/a	n/a	0.0	0	0	0	PAL2	0	R1003P
1114.338	2.934	716179	PROB	2.91	n/a	n/a	n/a	-999	-999	n/a	n/a	-999	10	[3, 5, 1]	9	0	1	0	n/a	n/a	0.0	0	0	0	PAL2	0	R1003P
1117.272	4.312	717646	PROB	4.312	n/a	n/a	n/a	-999	-999	n/a	n/a	-999	10	[2, 6, 5]	13	0	1	0	n/a	n/a	0.0	0	0	0	PAL2	0	R1003P
1121.584	0.005	719802	STOP	n/a	n/a	n/a	n/a	-999	-999	n/a	n/a	-999	10	[-999, -999, -999]	n/a	0	1	0	n/a	n/a	0.0	0	0	0	PAL2	0	R1003P
1121.589	0.0	719804	MATH_END	n/a	n/a	n/a	n/a	-999	-999	n/a	n/a	-999	10	[0, 0, 0]	n/a	0	1	0	n/a	n/a	0.0	0	0	0	PAL2	0	R1003P
1121.589	0.017	719804	TEST_START	n/a	n/a	n/a	n/a	-999	-999	n/a	n/a	-999	10	[0, 0, 0]	n/a	0	1	0	n/a	n/a	0.0	0	0	0	PAL2	0	R1003P
1121.606	0.25	719813	TEST_ORIENT	n/a	n/a	BOOK	STRING	1	1	STRING	PASS	0	10	[0, 0, 0]	n/a	0	1	0	n/a	n/a	0.0	0	0	0	PAL2	0	R1003P
1122.54	4.0	720280	TEST_PROBE	n/a	wordpools/wordpool_EN.txt	BOOK	STRING	1	1	STRING	PASS	0	10	[0, 0, 0]	n/a	0	1	0	n/a	n/a	0.0	0	0	0	PAL2	0	R1003P
1122.54	1.936	720280	REC_START	n/a	n/a	n/a	n/a	1	-999	n/a	PASS	0	10	[0, 0, 0]	n/a	0	1	0	n/a	n/a	0.0	0	0	0	PAL2	0	R1003P
1124.476	3.081	721247	REC_EVENT	1.936	n/a	BOOK	STRING	1	1	STRING	PASS	0	10	[0, 0, 0]	n/a	0	1	0	n/a	n/a	0.0	0	0	0	PAL2	0	R1003P
1127.557	0.017	722788	REC_END	n/a	n/a	n/a	n/a	1	-999	n/a	n/a	-999	10	[0, 0, 0]	n/a	0	1	0	n/a	n/a	0.0	0	0	0	PAL2	0	R1003P
1127.574	0.25	722796	TEST_ORIENT	n/a	n/a	CORD	MOUTH	6	2	MOUTH	CHIN	0	10	[0, 0, 0]	n/a	0	1	0	n/a	n/a	0.0	0	0	0	PAL2	0	R1003P
1128.574	4.0	723296	TEST_PROBE	n/a	wordpools/wordpool_EN.txt	CORD	MOUTH	6	2	MOUTH	CHIN	0	10	[0, 0, 0]	n/a	0	1	0	n/a	n/a	0.0	0	0	0	PAL2	0	R1003P
1128.575	0.953	723297	REC_START	n/a	n/a	n/a	n/a	6	-999	n/a	CHIN	0	10	[0, 0, 0]	n/a	0	1	0	n/a	n/a	0.0	0	0	0	PAL2	0	R1003P
1129.528	4.063	723773	REC_EVENT	0.953	n/a	CORD	MOUTH	6	2	MOUTH	CHIN	0	10	[0, 0, 0]	n/a	0	1	0	n/a	n/a	0.0	0	0	0	PAL2	0	R1003P
1133.591	0.017	725805	REC_END	n/a	n/a	n/a	n/a	6	-999	n/a	n/a	-999	10	[0, 0, 0]	n/a	0	1	0	n/a	n/a	0.0	0	0	0	PAL2	0	R1003P
1133.608	0.25	725813	TEST_ORIENT	n/a	n/a	CHIN	SPARK	5	3	CHIN	PASS	0	10	[0, 0, 0]	n/a	0	1	0	n/a	n/a	0.0	0	0	0	PAL2	0	R1003P
1134.608	4.0	726313	TEST_PROBE	n/a	wordpools/wordpool_EN.txt	CHIN	SPARK	5	3	CHIN	PASS	0	10	[0, 0, 0]	n/a	0	1	0	n/a	n/a	0.0	0	0	0	PAL2	0	R1003P
1134.609	2.019	726314	REC_START	n/a	n/a	n/a	n/a	5	-999	n/a	PASS	0	10	[0, 0, 0]	n/a	0	1	0	n/a	n/a	0.0	0	0	0	PAL2	0	R1003P
1136.628	2.991	727323	REC_EVENT	2.019	n/a	CHIN	SPARK	5	3	CHIN	PASS	0	10	[0, 0, 0]	n/a	0	1	0	n/a	n/a	0.0	0	0	0	PAL2	0	R1003P
1139.619	0.007	728819	REC_END	n/a	n/a	n/a	n/a	5	-999	n/a	n/a	-999	10	[0, 0, 0]	n/a	0	1	0	n/a	n/a	0.0	0	0	0	PAL2	0	R1003P
1139.626	0.25	728822	TEST_ORIENT	n/a	n/a	LEAF	PASTE	4	4	LEAF	PASS	0	10	[0, 0, 0]	n/a	0	1	0	n/a	n/a	0.0	0	0	0	PAL2	0	R1003P
1140.476	4.0	729247	TEST_PROBE	n/a	wordpools/wordpool_EN.txt	LEAF	PASTE	4	4	LEAF	PASS	0	10	[0, 0, 0]	n/a	0	1	0	n/a	n/a	0.0	0	0	0	PAL2	0	R1003P
1140.477	1.689	729248	REC_START	n/a	n/a	n/a	n/a	4	-999	n/a	PASS	0	10	[0, 0, 0]	n/a	0	1	0	n/a	n/a	0.0	0	0	0	PAL2	0	R1003P
1142.166	3.321	730092	REC_EVENT	1.689	n/a	LEAF	PASTE	4	4	LEAF	PASS	0	10	[0, 0, 0]	n/a	0	1	0	n/a	n/a	0.0	0	0	0	PAL2	0	R1003P
1145.487	0.007	731752	REC_END	n/a	n/a	n/a	n/a	4	-999	n/a	n/a	-999	10	[0, 0, 0]	n/a	0	1	0	n/a	n/a	0.0	0	0	0	PAL2	0	R1003P
1145.494	0.25	731756	TEST_ORIENT	n/a	n/a	DRUM	TOOL	3	5	TOOL	PASS	0	10	[0, 0, 0]	n/a	0	1	0	n/a	n/a	0.0	0	0	0	PAL2	0	R1003P
1146.527	4.0	732272	TEST_PROBE	n/a	wordpools/wordpool_EN.txt	DRUM	TOOL	3	5	TOOL	PASS	0	10	[0, 0, 0]	n/a	0	1	0	n/a	n/a	0.0	0	0	0	PAL2	0	R1003P
1146.528	2.696	732273	REC_START	n/a	n/a	n/a	n/a	3	-999	n/a	PASS	0	10	[0, 0, 0]	n/a	0	1	0	n/a	n/a	0.0	0	0	0	PAL2	0	R1003P
1149.224	2.314	733621	REC_EVENT	2.696	n/a	DRUM	TOOL	3	5	TOOL	PASS	0	10	[0, 0, 0]	n/a	0	1	0	n/a	n/a	0.0	0	0	0	PAL2	0	R1003P
1151.538	0.007	734778	REC_END	n/a	n/a	n/a	n/a	3	-999	n/a	n/a	-999	10	[0, 0, 0]	n/a	0	1	0	n/a	n/a	0.0	0	0	0	PAL2	0	R1003P
1151.545	0.25	734781	TEST_ORIENT	n/a	n/a	HORSE	FENCE	2	6	HORSE	STEEL	0	10	[0, 0, 0]	n/a	0	1	0	n/a	n/a	0.0	0	0	0	PAL2	0	R1003P
1152.379	4.0	735198	TEST_PROBE	n/a	wordpools/wordpool_EN.txt	HORSE	FENCE	2	6	HORSE	STEEL	0	10	[0, 0, 0]	n/a	0	1	0	n/a	n/a	0.0	0	0	0	PAL2	0	R1003P
1152.379	2.475	735198	REC_START	n/a	n/a	n/a	n/a	2	-999	n/a	STEEL	0	10	[0, 0, 0]	n/a	0	1	0	n/a	n/a	0.0	0	0	0	PAL2	0	R1003P
1154.854	2.542	736436	REC_EVENT	2.475	n/a	HORSE	FENCE	2	6	HORSE	STEEL	0	10	[0, 0, 0]	n/a	0	1	0	n/a	n/a	0.0	0	0	0	PAL2	0	R1003P
1157.396	1.004	737707	REC_END	n/a	n/a	n/a	n/a	2	-999	n/a	n/a	-999	10	[0, 0, 0]	n/a	0	1	0	n/a	n/a	0.0	0	0	0	PAL2	0	R1003P
1158.4	10.448	738209	ENCODING_START	n/a	n/a	n/a	n/a	0	-999	n/a	n/a	-999	11	[0, 0, 0]	n/a	0	1	0	n/a	n/a	0.0	0	0	0	PAL2	0	R1003P
1168.848	0.25	743432	STUDY_ORIENT	n/a	n/a	MUD	JAR	1	3	MUD	RUG	0	11	[0, 0, 0]	n/a	0	1	0	n/a	n/a	0.0	0	0	0	PAL2	0	R1003P
1169.665	4.0	743841	STUDY_PAIR	n/a	wordpools/wordpool_EN.txt	MUD	JAR	1	3	MUD	RUG	0	11	[0, 0, 0]	n/a	0	1	0	n/a	n/a	0.0	0	0	0	PAL2	0	R1003P
1174.683	0.25	746350	STUDY_ORIENT	n/a	n/a	GRAPE	FOG	2	6	FOG	STREAM	0	11	[0, 0, 0]	n/a	0	1	0	n/a	n/a	0.0	0	0	0	PAL2	0	R1003P
1175.533	4.0	746775	STUDY_PAIR	n/a	wordpools/wordpool_EN.txt	GRAPE	FOG	2	6	FOG	STREAM	0	11	[0, 0, 0]	n/a	0	1	0	n/a	n/a	0.0	0	0	0	PAL2	0	R1003P
1180.567	0.25	749292	STUDY_ORIENT	n/a	n/a	STICK	STOOL	3	5	STICK	TREE	0	11	[0, 0, 0]	n/a	0	1	0	n/a	n/a	0.0	0	0	0	PAL2	0	R1003P
1181.468	4.0	749742	STUDY_PAIR	n/a	wordpools/wordpool_EN.txt	STICK	STOOL	3	5	STICK	TREE	0	11	[0, 0, 0]	n/a	0	1	0	n/a	n/a	0.0	0	0	0	PAL2	0	R1003P
1186.502	0.25	752259	STUDY_ORIENT	n/a	n/a	SNAKE	DEER	4	4	SNAKE	DEER	1	11	[0, 0, 0]	n/a	0	1	0	n/a	n/a	0.0	0	0	0	PAL2	0	R1003P
1187.485	4.0	752750	STUDY_PAIR	n/a	wordpools/wordpool_EN.txt	SNAKE	DEER	4	4	SNAKE	DEER	1	11	[0, 0, 0]	n/a	0	1	0	n/a	n/a	0.0	0	0	0	PAL2	0	R1003P
1192.503	0.25	755259	STUDY_ORIENT	n/a	n/a	THUMB	CLAY	5	1	THUMB	CHIN	0	11	[0, 0, 0]	n/a	0	1	0	n/a	n/a	0.0	0	0	0	PAL2	0	R1003P
1193.487	4.0	755751	STUDY_PAIR	n/a	wordpools/wordpool_EN.txt	THUMB	CLAY	5	1	THUMB	CHIN	0	11	[0, 0, 0]	n/a	0	1	0	n/a	n/a	0.0	0	0	0	PAL2	0	R1003P
1198.521	0.25	758268	STUDY_ORIENT	n/a	n/a	RUG	CHAIR	6	2	RUG	PASS	0	11	[0, 0, 0]	n/a	0	1	0	n/a	n/a	0.0	0	0	0	PAL2	0	R1003P
1199.354	4.0	758685	STUDY_PAIR	n/a	wordpools/wordpool_EN.txt	RUG	CHAIR	6	2	RUG	PASS	0	11	[0, 0, 0]	n/a	0	1	0	n/a	n/a	0.0	0	0	0	PAL2	0	R1003P
1203.355	1.0	760685	START	n/a	n/a	n/a	n/a	-999	-999	n/a	n/a	-999	11	[-999, -999, -999]	n/a	0	1	0	n/a	n/a	0.0	0	0	0	PAL2	0	R1003P
1204.355	0.017	761185	MATH_START	n/a	n/a	n/a	n/a	-999	-999	n/a	n/a	-999	11	[0, 0, 0]	n/a	0	1	0	n/a	n/a	0.0	0	0	0	PAL2	0	R1003P
1204.372	2.55	761193	PROB	2.516	n/a	n/a	n/a	-999	-999	n/a	n/a	-999	11	[8, 1, 4]	13	0	1	0	n/a	n/a	0.0	0	0	0	PAL2	0	R1003P
1206.922	2.183	762468	PROB	2.149	n/a	n/a	n/a	-999	-999	n/a	n/a	-999	11	[2, 2, 2]	6	0	1	0	n/a	n/a	0.0	0	0	0	PAL2	0	R1003P
1209.105	2.852	763560	PROB	2.823	n/a	n/a	n/a	-999	-999	n/a	n/a	-999	11	[2, 3, 9]	14	0	1	0	n/a	n/a	0.0	0	0	0	PAL2	0	R1003P
1211.957	3.434	764986	PROB	3.403	n/a	n/a	n/a	-999	-999	n/a	n/a	-999	11	[8, 6, 4]	18	0	1	0	n/a	n/a	0.0	0	0	0	PAL2	0	R1003P
1215.391	2.917	766703	PROB	2.881	n/a	n/a	n/a	-999	-999	n/a	n/a	-999	11	[4, 6, 5]	15	0	1	0	n/a	n/a	0.0	0	0	0	PAL2	0	R1003P
1218.308	5.001	768161	PROB	4.98	n/a	n/a	n/a	-999	-999	n/a	n/a	-999	11	[5, 2, 6]	13	0	1	0	n/a	n/a	0.0	0	0	0	PAL2	0	R1003P
1223.309	3.451	770661	PROB	3.451	n/a	n/a	n/a	-999	-999	n/a	n/a	-999	11	[1, 2, 1]	4	0	1	0	n/a	n/a	0.0	0	0	0	PAL2	0	R1003P
1226.76	0.016	772387	STOP	n/a	n/a	n/a	n/a	-999	-999	n/a	n/a	-999	11	[-999, -999, -999]	n/a	0	1	0	n/a	n/a	0.0	0	0	0	PAL2	0	R1003P
1226.776	0.0	772395	MATH_END	n/a	n/a	n/a	n/a	-999	-999	n/a	n/a	-999	11	[0, 0, 0]	n/a	0	1	0	n/a	n/a	0.0	0	0	0	PAL2	0	R1003P
1226.776	0.017	772395	TEST_START	n/a	n/a	n/a	n/a	-999	-999	n/a	n/a	-999	11	[0, 0, 0]	n/a	0	1	0	n/a	n/a	0.0	0	0	0	PAL2	0	R1003P
1226.793	0.25	772403	TEST_ORIENT	n/a	n/a	THUMB	CLAY	5	1	THUMB	CHIN	0	11	[0, 0, 0]	n/a	0	1	0	n/a	n/a	0.0	0	0	0	PAL2	0	R1003P
1227.424	4.6	772719	STIM_ON	n/a	n/a	THUMB	CLAY	5	1	THUMB	CHIN	0	11	[0, 0, 0]	n/a	1	1	4600	DA1	DA2	1500.0	50	230	300	PAL2	0	R1003P
1227.626	4.0	772820	TEST_PROBE	n/a	wordpools/wordpool_EN.txt	THUMB	CLAY	5	1	THUMB	CHIN	0	11	[0, 0, 0]	n/a	1	1	4600	DA1	DA2	1500.0	50	230	300	PAL2	0	R1003P
1227.627	2.66	772820	REC_START	n/a	n/a	n/a	n/a	5	-999	n/a	CHIN	0	11	[0, 0, 0]	n/a	1	1	4600	DA1	DA2	1500.0	50	230	300	PAL2	0	R1003P
1230.287	2.35	774150	REC_EVENT	2.66	n/a	THUMB	CLAY	5	1	THUMB	CHIN	0	11	[0, 0, 0]	n/a	1	1	4600	DA1	DA2	1500.0	50	230	300	PAL2	0	R1003P
1232.637	0.007	775325	REC_END	n/a	n/a	n/a	n/a	5	-999	n/a	n/a	-999	11	[0, 0, 0]	n/a	0	1	0	n/a	n/a	0.0	0	0	0	PAL2	0	R1003P
1232.644	0.25	775329	TEST_ORIENT	n/a	n/a	RUG	CHAIR	6	2	RUG	PASS	0	11	[0, 0, 0]	n/a	0	1	0	n/a	n/a	0.0	0	0	0	PAL2	0	R1003P
1233.461	4.0	775737	TEST_PROBE	n/a	wordpools/wordpool_EN.txt	RUG	CHAIR	6	2	RUG	PASS	0	11	[0, 0, 0]	n/a	0	1	0	n/a	n/a	0.0	0	0	0	PAL2	0	R1003P
1233.461	1.732	775737	REC_START	n/a	n/a	n/a	n/a	6	-999	n/a	PASS	0	11	[0, 0, 0]	n/a	0	1	0	n/a	n/a	0.0	0	0	0	PAL2	0	R1003P
1235.193	3.285	776603	REC_EVENT	1.732	n/a	RUG	CHAIR	6	2	RUG	PASS	0	11	[0, 0, 0]	n/a	0	1	0	n/a	n/a	0.0	0	0	0	PAL2	0	R1003P
1238.478	0.017	778246	REC_END	n/a	n/a	n/a	n/a	6	-999	n/a	n/a	-999	11	[0, 0, 0]	n/a	0	1	0	n/a	n/a	0.0	0	0	0	PAL2	0	R1003P
1238.495	0.25	778254	TEST_ORIENT	n/a	n/a	MUD	JAR	1	3	MUD	RUG	0	11	[0, 0, 0]	n/a	0	1	0	n/a	n/a	0.0	0	0	0	PAL2	0	R1003P
1239.113	4.6	778563	STIM_ON	n/a	n/a	MUD	JAR	1	3	MUD	RUG	0	11	[0, 0, 0]	n/a	1	1	4600	DA1	DA2	1500.0	50	230	300	PAL2	0	R1003P
1239.329	0.0	778671	REC_START	n/a	n/a	n/a	n/a	1	-999	n/a	RUG	0	11	[0, 0, 0]	n/a	1	1	4600	DA1	DA2	1500.0	50	230	300	PAL2	0	R1003P
1239.329	4.0	778671	TEST_PROBE	n/a	wordpools/wordpool_EN.txt	MUD	JAR	1	3	MUD	RUG	0	11	[0, 0, 0]	n/a	1	1	4600	DA1	DA2	1500.0	50	230	300	PAL2	0	R1003P
1242.209	2.137	780111	REC_EVENT	2.88	n/a	MUD	JAR	1	3	MUD	RUG	0	11	[0, 0, 0]	n/a	1	1	4600	DA1	DA2	1500.0	50	230	300	PAL2	0	R1003P
1244.346	0.017	781179	REC_END	n/a	n/a	n/a	n/a	1	-999	n/a	n/a	-999	11	[0, 0, 0]	n/a	0	1	0	n/a	n/a	0.0	0	0	0	PAL2	0	R1003P
1244.363	0.25	781188	TEST_ORIENT	n/a	n/a	SNAKE	DEER	4	4	SNAKE	DEER	1	11	[0, 0, 0]	n/a	0	1	0	n/a	n/a	0.0	0	0	0	PAL2	0	R1003P
1245.397	4.0	781705	TEST_PROBE	n/a	wordpools/wordpool_EN.txt	SNAKE	DEER	4	4	SNAKE	DEER	1	11	[0, 0, 0]	n/a	0	1	0	n/a	n/a	0.0	0	0	0	PAL2	0	R1003P
1245.397	0.851	781705	REC_START	n/a	n/a	n/a	n/a	4	-999	n/a	DEER	1	11	[0, 0, 0]	n/a	0	1	0	n/a	n/a	0.0	0	0	0	PAL2	0	R1003P
1246.248	4.166	782130	REC_EVENT	0.851	n/a	SNAKE	DEER	4	4	SNAKE	DEER	1	11	[0, 0, 0]	n/a	0	1	0	n/a	n/a	0.0	0	0	0	PAL2	0	R1003P
1250.414	0.017	784213	REC_END	n/a	n/a	n/a	n/a	4	-999	n/a	n/a	-999	11	[0, 0, 0]	n/a	0	1	0	n/a	n/a	0.0	0	0	0	PAL2	0	R1003P
1250.431	0.25	784222	TEST_ORIENT	n/a	n/a	STICK	STOOL	3	5	STICK	TREE	0	11	[0, 0, 0]	n/a	0	1	0	n/a	n/a	0.0	0	0	0	PAL2	0	R1003P
1251.038	4.6	784525	STIM_ON	n/a	n/a	STICK	STOOL	3	5	STICK	TREE	0	11	[0, 0, 0]	n/a	1	1	4600	DA1	DA2	1500.0	50	230	300	PAL2	0	R1003P
1251.248	4.0	784630	TEST_PROBE	n/a	wordpools/wordpool_EN.txt	STICK	STOOL	3	5	STICK	TREE	0	11	[0, 0, 0]	n/a	1	1	4600	DA1	DA2	1500.0	50	230	300	PAL2	0	R1003P
1251.248	2.411	784630	REC_START	n/a	n/a	n/a	n/a	3	-999	n/a	TREE	0	11	[0, 0, 0]	n/a	1	1	4600	DA1	DA2	1500.0	50	230	300	PAL2	0	R1003P
1253.659	2.606	785836	REC_EVENT	2.411	n/a	STICK	STOOL	3	5	STICK	TREE	0	11	[0, 0, 0]	n/a	1	1	4600	DA1	DA2	1500.0	50	230	300	PAL2	0	R1003P
1256.265	0.017	787139	REC_END	n/a	n/a	n/a	n/a	3	-999	n/a	n/a	-999	11	[0, 0, 0]	n/a	0	1	0	n/a	n/a	0.0	0	0	0	PAL2	0	R1003P
1256.282	0.25	787147	TEST_ORIENT	n/a	n/a	GRAPE	FOG	2	6	FOG	STREAM	0	11	[0, 0, 0]	n/a	0	1	0	n/a	n/a	0.0	0	0	0	PAL2	0	R1003P
1257.164	4.0	787588	TEST_PROBE	n/a	wordpools/wordpool_EN.txt	GRAPE	FOG	2	6	FOG	STREAM	0	11	[0, 0, 0]	n/a	0	1	0	n/a	n/a	0.0	0	0	0	PAL2	0	R1003P
1257.165	1.853	787589	REC_START	n/a	n/a	n/a	n/a	2	-999	n/a	STREAM	0	11	[0, 0, 0]	n/a	0	1	0	n/a	n/a	0.0	0	0	0	PAL2	0	R1003P
1259.018	3.158	788515	REC_EVENT	1.853	n/a	GRAPE	FOG	2	6	FOG	STREAM	0	11	[0, 0, 0]	n/a	0	1	0	n/a	n/a	0.0	0	0	0	PAL2	0	R1003P
1262.176	0.903	790094	REC_END	n/a	n/a	n/a	n/a	2	-999	n/a	n/a	-999	11	[0, 0, 0]	n/a	0	1	0	n/a	n/a	0.0	0	0	0	PAL2	0	R1003P
1263.079	10.44	790545	ENCODING_START	n/a	n/a	n/a	n/a	0	-999	n/a	n/a	-999	12	[0, 0, 0]	n/a	0	1	0	n/a	n/a	0.0	0	0	0	PAL2	0	R1003P
1273.519	0.25	795765	STUDY_ORIENT	n/a	n/a	MOUSE	LEG	1	1	LEG	MOUSE	1	12	[0, 0, 0]	n/a	0	1	0	n/a	n/a	0.0	0	0	0	PAL2	0	R1003P
1274.452	4.0	796232	STUDY_PAIR	n/a	wordpools/wordpool_EN.txt	MOUSE	LEG	1	1	LEG	MOUSE	1	12	[0, 0, 0]	n/a	0	1	0	n/a	n/a	0.0	0	0	0	PAL2	0	R1003P
1279.47	0.25	798740	STUDY_ORIENT	n/a	n/a	TREE	FACE	2	6	FACE	LEG	0	12	[0, 0, 0]	n/a	0	1	0	n/a	n/a	0.0	0	0	0	PAL2	0	R1003P
1280.487	4.0	799249	STUDY_PAIR	n/a	wordpools/wordpool_EN.txt	TREE	FACE	2	6	FACE	LEG	0	12	[0, 0, 0]	n/a	0	1	0	n/a	n/a	0.0	0	0	0	PAL2	0	R1003P
1285.521	0.25	801766	STUDY_ORIENT	n/a	n/a	HOUSE	JUICE	3	5	HOUSE	PASS	0	12	[0, 0, 0]	n/a	0	1	0	n/a	n/a	0.0	0	0	0	PAL2	0	R1003P
1286.538	4.0	802274	STUDY_PAIR	n/a	wordpools/wordpool_EN.txt	HOUSE	JUICE	3	5	HOUSE	PASS	0	12	[0, 0, 0]	n/a	0	1	0	n/a	n/a	0.0	0	0	0	PAL2	0	R1003P
1291.572	0.25	804791	STUDY_ORIENT	n/a	n/a	FROG	DITCH	4	2	FROG	JAR	0	12	[0, 0, 0]	n/a	0	1	0	n/a	n/a	0.0	0	0	0	PAL2	0	R1003P
1292.556	4.0	805283	STUDY_PAIR	n/a	wordpools/wordpool_EN.txt	FROG	DITCH	4	2	FROG	JAR	0	12	[0, 0, 0]	n/a	0	1	0	n/a	n/a	0.0	0	0	0	PAL2	0	R1003P
1297.59	0.25	807800	STUDY_ORIENT	n/a	n/a	FILM	STAIR	5	3	FILM	PASS	0	12	[0, 0, 0]	n/a	0	1	0	n/a	n/a	0.0	0	0	0	PAL2	0	R1003P
1298.54	4.0	808275	STUDY_PAIR	n/a	wordpools/wordpool_EN.txt	FILM	STAIR	5	3	FILM	PASS	0	12	[0, 0, 0]	n/a	0	1	0	n/a	n/a	0.0	0	0	0	PAL2	0	R1003P
1303.574	0.25	810792	STUDY_ORIENT	n/a	n/a	SWORD	BARN	6	4	BARN	STREAM	0	12	[0, 0, 0]	n/a	0	1	0	n/a	n/a	0.0	0	0	0	PAL2	0	R1003P
1304.408	4.0	811209	STUDY_PAIR	n/a	wordpools/wordpool_EN.txt	SWORD	BARN	6	4	BARN	STREAM	0	12	[0, 0, 0]	n/a	0	1	0	n/a	n/a	0.0	0	0	0	PAL2	0	R1003P
1308.426	0.999	813218	START	n/a	n/a	n/a	n/a	-999	-999	n/a	n/a	-999	12	[-999, -999, -999]	n/a	0	1	0	n/a	n/a	0.0	0	0	0	PAL2	0	R1003P
1309.425	0.017	813717	MATH_START	n/a	n/a	n/a	n/a	-999	-999	n/a	n/a	-999	12	[0, 0, 0]	n/a	0	1	0	n/a	n/a	0.0	0	0	0	PAL2	0	R1003P
1309.442	5.7	813726	PROB	5.669	n/a	n/a	n/a	-999	-999	n/a	n/a	-999	12	[8, 3, 6]	17	0	1	0	n/a	n/a	0.0	0	0	0	PAL2	0	R1003P
1315.142	3.302	816576	PROB	3.274	n/a	n/a	n/a	-999	-999	n/a	n/a	-999	12	[9, 3, 7]	19	0	1	0	n/a	n/a	0.0	0	0	0	PAL2	0	R1003P
1318.444	2.034	818226	PROB	2.004	n/a	n/a	n/a	-999	-999	n/a	n/a	-999	12	[2, 2, 2]	6	0	1	0	n/a	n/a	0.0	0	0	0	PAL2	0	R1003P
1320.478	4.951	819243	PROB	4.93	n/a	n/a	n/a	-999	-999	n/a	n/a	-999	12	[8, 9, 5]	21	0	1	0	n/a	n/a	0.0	0	0	0	PAL2	0	R1003P
1325.429	2.15	821719	PROB	2.123	n/a	n/a	n/a	-999	-999	n/a	n/a	-999	12	[8, 1, 1]	10	0	1	0	n/a	n/a	0.0	0	0	0	PAL2	0	R1003P
1327.579	4.757	822794	PROB	4.757	n/a	n/a	n/a	-999	-999	n/a	n/a	-999	12	[9, 8, 4]	21	0	1	0	n/a	n/a	0.0	0	0	0	PAL2	0	R1003P
1332.336	0.011	825172	STOP	n/a	n/a	n/a	n/a	-999	-999	n/a	n/a	-999	12	[-999, -999, -999]	n/a	0	1	0	n/a	n/a	0.0	0	0	0	PAL2	0	R1003P
1332.347	0.0	825178	MATH_END	n/a	n/a	n/a	n/a	-999	-999	n/a	n/a	-999	12	[0, 0, 0]	n/a	0	1	0	n/a	n/a	0.0	0	0	0	PAL2	0	R1003P
1332.347	0.016	825178	TEST_START	n/a	n/a	n/a	n/a	-999	-999	n/a	n/a	-999	12	[0, 0, 0]	n/a	0	1	0	n/a	n/a	0.0	0	0	0	PAL2	0	R1003P
1332.363	0.25	825186	TEST_ORIENT	n/a	n/a	MOUSE	LEG	1	1	LEG	MOUSE	1	12	[0, 0, 0]	n/a	0	1	0	n/a	n/a	0.0	0	0	0	PAL2	0	R1003P
1333.363	4.0	825686	TEST_PROBE	n/a	wordpools/wordpool_EN.txt	MOUSE	LEG	1	1	LEG	MOUSE	1	12	[0, 0, 0]	n/a	0	1	0	n/a	n/a	0.0	0	0	0	PAL2	0	R1003P
1333.364	0.849	825686	REC_START	n/a	n/a	n/a	n/a	1	-999	n/a	MOUSE	1	12	[0, 0, 0]	n/a	0	1	0	n/a	n/a	0.0	0	0	0	PAL2	0	R1003P
1334.213	4.161	826111	REC_EVENT	0.849	n/a	MOUSE	LEG	1	1	LEG	MOUSE	1	12	[0, 0, 0]	n/a	0	1	0	n/a	n/a	0.0	0	0	0	PAL2	0	R1003P
1338.374	0.007	828191	REC_END	n/a	n/a	n/a	n/a	1	-999	n/a	n/a	-999	12	[0, 0, 0]	n/a	0	1	0	n/a	n/a	0.0	0	0	0	PAL2	0	R1003P
1338.381	0.25	828194	TEST_ORIENT	n/a	n/a	FROG	DITCH	4	2	FROG	JAR	0	12	[0, 0, 0]	n/a	0	1	0	n/a	n/a	0.0	0	0	0	PAL2	0	R1003P
1339.099	4.6	828553	STIM_ON	n/a	n/a	FROG	DITCH	4	2	FROG	JAR	0	12	[0, 0, 0]	n/a	1	1	4600	DA1	DA2	1500.0	50	230	300	PAL2	0	R1003P
1339.315	4.0	828661	TEST_PROBE	n/a	wordpools/wordpool_EN.txt	FROG	DITCH	4	2	FROG	JAR	0	12	[0, 0, 0]	n/a	1	1	4600	DA1	DA2	1500.0	50	230	300	PAL2	0	R1003P
1339.315	1.135	828661	REC_START	n/a	n/a	n/a	n/a	4	-999	n/a	JAR	0	12	[0, 0, 0]	n/a	1	1	4600	DA1	DA2	1500.0	50	230	300	PAL2	0	R1003P
1340.45	3.882	829229	REC_EVENT	1.135	n/a	FROG	DITCH	4	2	FROG	JAR	0	12	[0, 0, 0]	n/a	1	1	4600	DA1	DA2	1500.0	50	230	300	PAL2	0	R1003P
1344.332	0.017	831170	REC_END	n/a	n/a	n/a	n/a	4	-999	n/a	n/a	-999	12	[0, 0, 0]	n/a	0	1	0	n/a	n/a	0.0	0	0	0	PAL2	0	R1003P
1344.349	0.25	831178	TEST_ORIENT	n/a	n/a	FILM	STAIR	5	3	FILM	PASS	0	12	[0, 0, 0]	n/a	0	1	0	n/a	n/a	0.0	0	0	0	PAL2	0	R1003P
1345.366	4.0	831687	TEST_PROBE	n/a	wordpools/wordpool_EN.txt	FILM	STAIR	5	3	FILM	PASS	0	12	[0, 0, 0]	n/a	0	1	0	n/a	n/a	0.0	0	0	0	PAL2	0	R1003P
1345.366	1.56	831687	REC_START	n/a	n/a	n/a	n/a	5	-999	n/a	PASS	0	12	[0, 0, 0]	n/a	0	1	0	n/a	n/a	0.0	0	0	0	PAL2	0	R1003P
1346.926	3.457	832467	REC_EVENT	1.56	n/a	FILM	STAIR	5	3	FILM	PASS	0	12	[0, 0, 0]	n/a	0	1	0	n/a	n/a	0.0	0	0	0	PAL2	0	R1003P
1350.383	0.017	834195	REC_END	n/a	n/a	n/a	n/a	5	-999	n/a	n/a	-999	12	[0, 0, 0]	n/a	0	1	0	n/a	n/a	0.0	0	0	0	PAL2	0	R1003P
1350.4	0.25	834204	TEST_ORIENT	n/a	n/a	SWORD	BARN	6	4	BARN	STREAM	0	12	[0, 0, 0]	n/a	0	1	0	n/a	n/a	0.0	0	0	0	PAL2	0	R1003P
1350.991	4.6	834499	STIM_ON	n/a	n/a	SWORD	BARN	6	4	BARN	STREAM	0	12	[0, 0, 0]	n/a	1	1	4600	DA1	DA2	1500.0	50	230	300	PAL2	0	R1003P
1351.2	4.0	834604	TEST_PROBE	n/a	wordpools/wordpool_EN.txt	SWORD	BARN	6	4	BARN	STREAM	0	12	[0, 0, 0]	n/a	1	1	4600	DA1	DA2	1500.0	50	230	300	PAL2	0	R1003P
1351.201	1.48	834604	REC_START	n/a	n/a	n/a	n/a	6	-999	n/a	STREAM	0	12	[0, 0, 0]	n/a	1	1	4600	DA1	DA2	1500.0	50	230	300	PAL2	0	R1003P
1352.681	3.53	835344	REC_EVENT	1.48	n/a	SWORD	BARN	6	4	BARN	STREAM	0	12	[0, 0, 0]	n/a	1	1	4600	DA1	DA2	1500.0	50	230	300	PAL2	0	R1003P
1356.211	0.024	837109	REC_END	n/a	n/a	n/a	n/a	6	-999	n/a	n/a	-999	12	[0, 0, 0]	n/a	0	1	0	n/a	n/a	0.0	0	0	0	PAL2	0	R1003P
1356.235	0.25	837121	TEST_ORIENT	n/a	n/a	HOUSE	JUICE	3	5	HOUSE	PASS	0	12	[0, 0, 0]	n/a	0	1	0	n/a	n/a	0.0	0	0	0	PAL2	0	R1003P
1357.167	4.0	837587	TEST_PROBE	n/a	wordpools/wordpool_EN.txt	HOUSE	JUICE	3	5	HOUSE	PASS	0	12	[0, 0, 0]	n/a	0	1	0	n/a	n/a	0.0	0	0	0	PAL2	0	R1003P
1357.168	1.925	837587	REC_START	n/a	n/a	n/a	n/a	3	-999	n/a	PASS	0	12	[0, 0, 0]	n/a	0	1	0	n/a	n/a	0.0	0	0	0	PAL2	0	R1003P
1359.093	3.103	838550	REC_EVENT	1.925	n/a	HOUSE	JUICE	3	5	HOUSE	PASS	0	12	[0, 0, 0]	n/a	0	1	0	n/a	n/a	0.0	0	0	0	PAL2	0	R1003P
1362.196	0.023	840101	REC_END	n/a	n/a	n/a	n/a	3	-999	n/a	n/a	-999	12	[0, 0, 0]	n/a	0	1	0	n/a	n/a	0.0	0	0	0	PAL2	0	R1003P
1362.219	0.25	840113	TEST_ORIENT	n/a	n/a	TREE	FACE	2	6	FACE	LEG	0	12	[0, 0, 0]	n/a	0	1	0	n/a	n/a	0.0	0	0	0	PAL2	0	R1003P
1362.886	4.6	840446	STIM_ON	n/a	n/a	TREE	FACE	2	6	FACE	LEG	0	12	[0, 0, 0]	n/a	1	1	4600	DA1	DA2	1500.0	50	230	300	PAL2	0	R1003P
1363.102	4.0	840554	TEST_PROBE	n/a	wordpools/wordpool_EN.txt	TREE	FACE	2	6	FACE	LEG	0	12	[0, 0, 0]	n/a	1	1	4600	DA1	DA2	1500.0	50	230	300	PAL2	0	R1003P
1363.102	2.016	840554	REC_START	n/a	n/a	n/a	n/a	2	-999	n/a	LEG	0	12	[0, 0, 0]	n/a	1	1	4600	DA1	DA2	1500.0	50	230	300	PAL2	0	R1003P
1365.118	3.001	841562	REC_EVENT	2.016	n/a	TREE	FACE	2	6	FACE	LEG	0	12	[0, 0, 0]	n/a	1	1	4600	DA1	DA2	1500.0	50	230	300	PAL2	0	R1003P
1368.119	1.065	843063	REC_END	n/a	n/a	n/a	n/a	2	-999	n/a	n/a	-999	12	[0, 0, 0]	n/a	0	1	0	n/a	n/a	0.0	0	0	0	PAL2	0	R1003P
1369.184	10.438	843595	ENCODING_START	n/a	n/a	n/a	n/a	0	-999	n/a	n/a	-999	13	[0, 0, 0]	n/a	0	0	0	n/a	n/a	0.0	0	0	0	PAL2	0	R1003P
1379.622	0.25	848814	STUDY_ORIENT	n/a	n/a	ZOO	BROOM	1	5	ZOO	BROOM	1	13	[0, 0, 0]	n/a	0	0	0	n/a	n/a	0.0	0	0	0	PAL2	0	R1003P
1380.506	4.0	849256	STUDY_PAIR	n/a	wordpools/wordpool_EN.txt	ZOO	BROOM	1	5	ZOO	BROOM	1	13	[0, 0, 0]	n/a	0	0	0	n/a	n/a	0.0	0	0	0	PAL2	0	R1003P
1385.54	0.25	851773	STUDY_ORIENT	n/a	n/a	FLEA	ANT	2	4	FLEA	ANT	1	13	[0, 0, 0]	n/a	0	0	0	n/a	n/a	0.0	0	0	0	PAL2	0	R1003P
1386.424	4.0	852215	STUDY_PAIR	n/a	wordpools/wordpool_EN.txt	FLEA	ANT	2	4	FLEA	ANT	1	13	[0, 0, 0]	n/a	0	0	0	n/a	n/a	0.0	0	0	0	PAL2	0	R1003P
1391.458	0.25	854732	STUDY_ORIENT	n/a	n/a	SHIRT	BAG	3	1	SHIRT	DRESS	0	13	[0, 0, 0]	n/a	0	0	0	n/a	n/a	0.0	0	0	0	PAL2	0	R1003P
1392.341	4.0	855173	STUDY_PAIR	n/a	wordpools/wordpool_EN.txt	SHIRT	BAG	3	1	SHIRT	DRESS	0	13	[0, 0, 0]	n/a	0	0	0	n/a	n/a	0.0	0	0	0	PAL2	0	R1003P
1397.359	0.25	857682	STUDY_ORIENT	n/a	n/a	BEE	TOAST	4	2	BEE	PASS	0	13	[0, 0, 0]	n/a	0	0	0	n/a	n/a	0.0	0	0	0	PAL2	0	R1003P
1398.293	4.0	858149	STUDY_PAIR	n/a	wordpools/wordpool_EN.txt	BEE	TOAST	4	2	BEE	PASS	0	13	[0, 0, 0]	n/a	0	0	0	n/a	n/a	0.0	0	0	0	PAL2	0	R1003P
1403.327	0.25	860666	STUDY_ORIENT	n/a	n/a	HAT	MAT	5	3	HAT	PASS	0	13	[0, 0, 0]	n/a	0	0	0	n/a	n/a	0.0	0	0	0	PAL2	0	R1003P
1404.143	4.0	861074	STUDY_PAIR	n/a	wordpools/wordpool_EN.txt	HAT	MAT	5	3	HAT	PASS	0	13	[0, 0, 0]	n/a	0	0	0	n/a	n/a	0.0	0	0	0	PAL2	0	R1003P
1409.178	0.25	863591	STUDY_ORIENT	n/a	n/a	STONE	FUDGE	6	6	FUDGE	n/a	0	13	[0, 0, 0]	n/a	0	0	0	n/a	n/a	0.0	0	0	0	PAL2	0	R1003P
1410.011	4.0	864008	STUDY_PAIR	n/a	wordpools/wordpool_EN.txt	STONE	FUDGE	6	6	FUDGE	n/a	0	13	[0, 0, 0]	n/a	0	0	0	n/a	n/a	0.0	0	0	0	PAL2	0	R1003P
1414.014	0.998	866009	START	n/a	n/a	n/a	n/a	-999	-999	n/a	n/a	-999	13	[-999, -999, -999]	n/a	0	0	0	n/a	n/a	0.0	0	0	0	PAL2	0	R1003P
1415.012	0.017	866508	MATH_START	n/a	n/a	n/a	n/a	-999	-999	n/a	n/a	-999	13	[0, 0, 0]	n/a	0	0	0	n/a	n/a	0.0	0	0	0	PAL2	0	R1003P
1415.029	5.785	866516	PROB	5.755	n/a	n/a	n/a	-999	-999	n/a	n/a	-999	13	[6, 9, 9]	24	0	0	0	n/a	n/a	0.0	0	0	0	PAL2	0	R1003P
1420.814	3.717	869409	PROB	3.698	n/a	n/a	n/a	-999	-999	n/a	n/a	-999	13	[3, 7, 4]	14	0	0	0	n/a	n/a	0.0	0	0	0	PAL2	0	R1003P
1424.531	6.085	871267	PROB	6.061	n/a	n/a	n/a	-999	-999	n/a	n/a	-999	13	[8, 5, 4]	17	0	0	0	n/a	n/a	0.0	0	0	0	PAL2	0	R1003P
1430.616	4.519	874310	PROB	4.519	n/a	n/a	n/a	-999	-999	n/a	n/a	-999	13	[7, 9, 4]	20	0	0	0	n/a	n/a	0.0	0	0	0	PAL2	0	R1003P
1435.135	0.014	876569	STOP	n/a	n/a	n/a	n/a	-999	-999	n/a	n/a	-999	13	[-999, -999, -999]	n/a	0	0	0	n/a	n/a	0.0	0	0	0	PAL2	0	R1003P
1435.149	0.0	876576	TEST_START	n/a	n/a	n/a	n/a	-999	-999	n/a	n/a	-999	13	[0, 0, 0]	n/a	0	0	0	n/a	n/a	0.0	0	0	0	PAL2	0	R1003P
1435.149	0.016	876576	MATH_END	n/a	n/a	n/a	n/a	-999	-999	n/a	n/a	-999	13	[0, 0, 0]	n/a	0	0	0	n/a	n/a	0.0	0	0	0	PAL2	0	R1003P
1435.165	0.25	876584	TEST_ORIENT	n/a	n/a	SHIRT	BAG	3	1	SHIRT	DRESS	0	13	[0, 0, 0]	n/a	0	0	0	n/a	n/a	0.0	0	0	0	PAL2	0	R1003P
1436.183	4.0	877093	TEST_PROBE	n/a	wordpools/wordpool_EN.txt	SHIRT	BAG	3	1	SHIRT	DRESS	0	13	[0, 0, 0]	n/a	0	0	0	n/a	n/a	0.0	0	0	0	PAL2	0	R1003P
1436.184	1.572	877093	REC_START	n/a	n/a	n/a	n/a	3	-999	n/a	DRESS	0	13	[0, 0, 0]	n/a	0	0	0	n/a	n/a	0.0	0	0	0	PAL2	0	R1003P
1437.756	3.438	877879	REC_EVENT	1.572	n/a	SHIRT	BAG	3	1	SHIRT	DRESS	0	13	[0, 0, 0]	n/a	0	0	0	n/a	n/a	0.0	0	0	0	PAL2	0	R1003P
1441.194	0.057	879598	REC_END	n/a	n/a	n/a	n/a	3	-999	n/a	n/a	-999	13	[0, 0, 0]	n/a	0	0	0	n/a	n/a	0.0	0	0	0	PAL2	0	R1003P
1441.251	0.25	879627	TEST_ORIENT	n/a	n/a	BEE	TOAST	4	2	BEE	PASS	0	13	[0, 0, 0]	n/a	0	0	0	n/a	n/a	0.0	0	0	0	PAL2	0	R1003P
1442.134	4.0	880068	TEST_PROBE	n/a	wordpools/wordpool_EN.txt	BEE	TOAST	4	2	BEE	PASS	0	13	[0, 0, 0]	n/a	0	0	0	n/a	n/a	0.0	0	0	0	PAL2	0	R1003P
1442.134	2.16	880068	REC_START	n/a	n/a	n/a	n/a	4	-999	n/a	PASS	0	13	[0, 0, 0]	n/a	0	0	0	n/a	n/a	0.0	0	0	0	PAL2	0	R1003P
1444.294	2.857	881148	REC_EVENT	2.16	n/a	BEE	TOAST	4	2	BEE	PASS	0	13	[0, 0, 0]	n/a	0	0	0	n/a	n/a	0.0	0	0	0	PAL2	0	R1003P
1447.151	0.017	882577	REC_END	n/a	n/a	n/a	n/a	4	-999	n/a	n/a	-999	13	[0, 0, 0]	n/a	0	0	0	n/a	n/a	0.0	0	0	0	PAL2	0	R1003P
1447.168	0.25	882585	TEST_ORIENT	n/a	n/a	HAT	MAT	5	3	HAT	PASS	0	13	[0, 0, 0]	n/a	0	0	0	n/a	n/a	0.0	0	0	0	PAL2	0	R1003P
1448.186	4.0	883094	TEST_PROBE	n/a	wordpools/wordpool_EN.txt	HAT	MAT	5	3	HAT	PASS	0	13	[0, 0, 0]	n/a	0	0	0	n/a	n/a	0.0	0	0	0	PAL2	0	R1003P
1448.186	2.686	883094	REC_START	n/a	n/a	n/a	n/a	5	-999	n/a	PASS	0	13	[0, 0, 0]	n/a	0	0	0	n/a	n/a	0.0	0	0	0	PAL2	0	R1003P
1450.872	2.331	884437	REC_EVENT	2.686	n/a	HAT	MAT	5	3	HAT	PASS	0	13	[0, 0, 0]	n/a	0	0	0	n/a	n/a	0.0	0	0	0	PAL2	0	R1003P
1453.203	0.017	885603	REC_END	n/a	n/a	n/a	n/a	5	-999	n/a	n/a	-999	13	[0, 0, 0]	n/a	0	0	0	n/a	n/a	0.0	0	0	0	PAL2	0	R1003P
1453.22	0.25	885611	TEST_ORIENT	n/a	n/a	FLEA	ANT	2	4	FLEA	ANT	1	13	[0, 0, 0]	n/a	0	0	0	n/a	n/a	0.0	0	0	0	PAL2	0	R1003P
1454.187	4.0	886094	TEST_PROBE	n/a	wordpools/wordpool_EN.txt	FLEA	ANT	2	4	FLEA	ANT	1	13	[0, 0, 0]	n/a	0	0	0	n/a	n/a	0.0	0	0	0	PAL2	0	R1003P
1454.187	0.857	886094	REC_START	n/a	n/a	n/a	n/a	2	-999	n/a	ANT	1	13	[0, 0, 0]	n/a	0	0	0	n/a	n/a	0.0	0	0	0	PAL2	0	R1003P
1455.044	4.16	886523	REC_EVENT	0.857	n/a	FLEA	ANT	2	4	FLEA	ANT	1	13	[0, 0, 0]	n/a	0	0	0	n/a	n/a	0.0	0	0	0	PAL2	0	R1003P
1459.204	0.017	888603	REC_END	n/a	n/a	n/a	n/a	2	-999	n/a	n/a	-999	13	[0, 0, 0]	n/a	0	0	0	n/a	n/a	0.0	0	0	0	PAL2	0	R1003P
1459.221	0.25	888611	TEST_ORIENT	n/a	n/a	ZOO	BROOM	1	5	ZOO	BROOM	1	13	[0, 0, 0]	n/a	0	0	0	n/a	n/a	0.0	0	0	0	PAL2	0	R1003P
1460.104	4.0	889053	TEST_PROBE	n/a	wordpools/wordpool_EN.txt	ZOO	BROOM	1	5	ZOO	BROOM	1	13	[0, 0, 0]	n/a	0	0	0	n/a	n/a	0.0	0	0	0	PAL2	0	R1003P
1460.104	1.135	889053	REC_START	n/a	n/a	n/a	n/a	1	-999	n/a	BROOM	1	13	[0, 0, 0]	n/a	0	0	0	n/a	n/a	0.0	0	0	0	PAL2	0	R1003P
1461.239	3.892	889620	REC_EVENT	1.135	n/a	ZOO	BROOM	1	5	ZOO	BROOM	1	13	[0, 0, 0]	n/a	0	0	0	n/a	n/a	0.0	0	0	0	PAL2	0	R1003P
1465.131	0.007	891566	REC_END	n/a	n/a	n/a	n/a	1	-999	n/a	n/a	-999	13	[0, 0, 0]	n/a	0	0	0	n/a	n/a	0.0	0	0	0	PAL2	0	R1003P
1465.138	0.25	891570	TEST_ORIENT	n/a	n/a	STONE	FUDGE	6	6	FUDGE	n/a	0	13	[0, 0, 0]	n/a	0	0	0	n/a	n/a	0.0	0	0	0	PAL2	0	R1003P
1466.105	0.0	892053	REC_START	n/a	n/a	n/a	n/a	6	-999	n/a	n/a	0	13	[0, 0, 0]	n/a	0	0	0	n/a	n/a	0.0	0	0	0	PAL2	0	R1003P
1466.105	4.0	892053	TEST_PROBE	n/a	wordpools/wordpool_EN.txt	STONE	FUDGE	6	6	FUDGE	n/a	0	13	[0, 0, 0]	n/a	0	0	0	n/a	n/a	0.0	0	0	0	PAL2	0	R1003P
1471.12	0.002	894561	REC_EVENT	5.015	n/a	STONE	FUDGE	6	6	FUDGE	<>	0	13	[0, 0, 0]	n/a	0	0	0	n/a	n/a	0.0	0	0	0	PAL2	0	R1003P
1471.122	1.358	894562	REC_END	n/a	n/a	n/a	n/a	6	-999	n/a	n/a	-999	13	[0, 0, 0]	n/a	0	0	0	n/a	n/a	0.0	0	0	0	PAL2	0	R1003P
1472.48	10.446	895241	ENCODING_START	n/a	n/a	n/a	n/a	0	-999	n/a	n/a	-999	14	[0, 0, 0]	n/a	0	0	0	n/a	n/a	0.0	0	0	0	PAL2	0	R1003P
1482.926	0.25	900463	STUDY_ORIENT	n/a	n/a	SHIELD	STEAM	1	1	STEAM	RUG	0	14	[0, 0, 0]	n/a	0	0	0	n/a	n/a	0.0	0	0	0	PAL2	0	R1003P
1483.776	4.0	900888	STUDY_PAIR	n/a	wordpools/wordpool_EN.txt	SHIELD	STEAM	1	1	STEAM	RUG	0	14	[0, 0, 0]	n/a	0	0	0	n/a	n/a	0.0	0	0	0	PAL2	0	R1003P
1488.81	0.25	903405	STUDY_ORIENT	n/a	n/a	CAPE	BOMB	2	4	CAPE	PASS	0	14	[0, 0, 0]	n/a	0	0	0	n/a	n/a	0.0	0	0	0	PAL2	0	R1003P
1489.694	4.0	903847	STUDY_PAIR	n/a	wordpools/wordpool_EN.txt	CAPE	BOMB	2	4	CAPE	PASS	0	14	[0, 0, 0]	n/a	0	0	0	n/a	n/a	0.0	0	0	0	PAL2	0	R1003P
1494.728	0.25	906364	STUDY_ORIENT	n/a	n/a	NET	LOCK	3	3	LOCK	ARM	0	14	[0, 0, 0]	n/a	0	0	0	n/a	n/a	0.0	0	0	0	PAL2	0	R1003P
1495.578	4.0	906789	STUDY_PAIR	n/a	wordpools/wordpool_EN.txt	NET	LOCK	3	3	LOCK	ARM	0	14	[0, 0, 0]	n/a	0	0	0	n/a	n/a	0.0	0	0	0	PAL2	0	R1003P
1500.596	0.25	909298	STUDY_ORIENT	n/a	n/a	FUR	MULE	4	6	MULE	PASS	0	14	[0, 0, 0]	n/a	0	0	0	n/a	n/a	0.0	0	0	0	PAL2	0	R1003P
1501.429	4.0	909714	STUDY_PAIR	n/a	wordpools/wordpool_EN.txt	FUR	MULE	4	6	MULE	PASS	0	14	[0, 0, 0]	n/a	0	0	0	n/a	n/a	0.0	0	0	0	PAL2	0	R1003P
1506.447	0.25	912223	STUDY_ORIENT	n/a	n/a	MAIL	DRESS	5	5	DRESS	PASS	0	14	[0, 0, 0]	n/a	0	0	0	n/a	n/a	0.0	0	0	0	PAL2	0	R1003P
1507.397	4.0	912698	STUDY_PAIR	n/a	wordpools/wordpool_EN.txt	MAIL	DRESS	5	5	DRESS	PASS	0	14	[0, 0, 0]	n/a	0	0	0	n/a	n/a	0.0	0	0	0	PAL2	0	R1003P
1512.431	0.25	915215	STUDY_ORIENT	n/a	n/a	SMOKE	RIB	6	2	SMOKE	PASS	0	14	[0, 0, 0]	n/a	0	0	0	n/a	n/a	0.0	0	0	0	PAL2	0	R1003P
1513.365	4.0	915682	STUDY_PAIR	n/a	wordpools/wordpool_EN.txt	SMOKE	RIB	6	2	SMOKE	PASS	0	14	[0, 0, 0]	n/a	0	0	0	n/a	n/a	0.0	0	0	0	PAL2	0	R1003P
1517.383	0.999	917691	START	n/a	n/a	n/a	n/a	-999	-999	n/a	n/a	-999	14	[-999, -999, -999]	n/a	0	0	0	n/a	n/a	0.0	0	0	0	PAL2	0	R1003P
1518.382	0.017	918190	MATH_START	n/a	n/a	n/a	n/a	-999	-999	n/a	n/a	-999	14	[0, 0, 0]	n/a	0	0	0	n/a	n/a	0.0	0	0	0	PAL2	0	R1003P
1518.399	4.551	918199	PROB	4.523	n/a	n/a	n/a	-999	-999	n/a	n/a	-999	14	[8, 1, 6]	15	0	0	0	n/a	n/a	0.0	0	0	0	PAL2	0	R1003P
1522.95	4.451	920474	PROB	4.426	n/a	n/a	n/a	-999	-999	n/a	n/a	-999	14	[2, 4, 3]	9	0	0	0	n/a	n/a	0.0	0	0	0	PAL2	0	R1003P
1527.401	4.184	922700	PROB	4.159	n/a	n/a	n/a	-999	-999	n/a	n/a	-999	14	[6, 6, 3]	15	0	0	0	n/a	n/a	0.0	0	0	0	PAL2	0	R1003P
1531.585	4.418	924791	PROB	4.391	n/a	n/a	n/a	-999	-999	n/a	n/a	-999	14	[7, 7, 4]	18	0	0	0	n/a	n/a	0.0	0	0	0	PAL2	0	R1003P
1536.003	2.613	927000	PROB	2.613	n/a	n/a	n/a	-999	-999	n/a	n/a	-999	14	[3, 1, 1]	5	0	0	0	n/a	n/a	0.0	0	0	0	PAL2	0	R1003P
1538.616	0.003	928307	STOP	n/a	n/a	n/a	n/a	-999	-999	n/a	n/a	-999	14	[-999, -999, -999]	n/a	0	0	0	n/a	n/a	0.0	0	0	0	PAL2	0	R1003P
1538.619	0.0	928308	MATH_END	n/a	n/a	n/a	n/a	-999	-999	n/a	n/a	-999	14	[0, 0, 0]	n/a	0	0	0	n/a	n/a	0.0	0	0	0	PAL2	0	R1003P
1538.619	0.017	928308	TEST_START	n/a	n/a	n/a	n/a	-999	-999	n/a	n/a	-999	14	[0, 0, 0]	n/a	0	0	0	n/a	n/a	0.0	0	0	0	PAL2	0	R1003P
1538.636	0.25	928317	TEST_ORIENT	n/a	n/a	SHIELD	STEAM	1	1	STEAM	RUG	0	14	[0, 0, 0]	n/a	0	0	0	n/a	n/a	0.0	0	0	0	PAL2	0	R1003P
1539.62	4.0	928809	TEST_PROBE	n/a	wordpools/wordpool_EN.txt	SHIELD	STEAM	1	1	STEAM	RUG	0	14	[0, 0, 0]	n/a	0	0	0	n/a	n/a	0.0	0	0	0	PAL2	0	R1003P
1539.62	1.78	928809	REC_START	n/a	n/a	n/a	n/a	1	-999	n/a	RUG	0	14	[0, 0, 0]	n/a	0	0	0	n/a	n/a	0.0	0	0	0	PAL2	0	R1003P
1541.4	3.237	929699	REC_EVENT	1.78	n/a	SHIELD	STEAM	1	1	STEAM	RUG	0	14	[0, 0, 0]	n/a	0	0	0	n/a	n/a	0.0	0	0	0	PAL2	0	R1003P
1544.637	0.017	931317	REC_END	n/a	n/a	n/a	n/a	1	-999	n/a	n/a	-999	14	[0, 0, 0]	n/a	0	0	0	n/a	n/a	0.0	0	0	0	PAL2	0	R1003P
1544.654	0.25	931326	TEST_ORIENT	n/a	n/a	SMOKE	RIB	6	2	SMOKE	PASS	0	14	[0, 0, 0]	n/a	0	0	0	n/a	n/a	0.0	0	0	0	PAL2	0	R1003P
1545.604	4.0	931801	TEST_PROBE	n/a	wordpools/wordpool_EN.txt	SMOKE	RIB	6	2	SMOKE	PASS	0	14	[0, 0, 0]	n/a	0	0	0	n/a	n/a	0.0	0	0	0	PAL2	0	R1003P
1545.605	3.255	931801	REC_START	n/a	n/a	n/a	n/a	6	-999	n/a	PASS	0	14	[0, 0, 0]	n/a	0	0	0	n/a	n/a	0.0	0	0	0	PAL2	0	R1003P
1548.86	1.755	933429	REC_EVENT	3.255	n/a	SMOKE	RIB	6	2	SMOKE	PASS	0	14	[0, 0, 0]	n/a	0	0	0	n/a	n/a	0.0	0	0	0	PAL2	0	R1003P
1550.615	0.007	934306	REC_END	n/a	n/a	n/a	n/a	6	-999	n/a	n/a	-999	14	[0, 0, 0]	n/a	0	0	0	n/a	n/a	0.0	0	0	0	PAL2	0	R1003P
1550.622	0.25	934310	TEST_ORIENT	n/a	n/a	NET	LOCK	3	3	LOCK	ARM	0	14	[0, 0, 0]	n/a	0	0	0	n/a	n/a	0.0	0	0	0	PAL2	0	R1003P
1551.506	4.0	934751	TEST_PROBE	n/a	wordpools/wordpool_EN.txt	NET	LOCK	3	3	LOCK	ARM	0	14	[0, 0, 0]	n/a	0	0	0	n/a	n/a	0.0	0	0	0	PAL2	0	R1003P
1551.506	2.525	934751	REC_START	n/a	n/a	n/a	n/a	3	-999	n/a	ARM	0	14	[0, 0, 0]	n/a	0	0	0	n/a	n/a	0.0	0	0	0	PAL2	0	R1003P
1554.031	2.492	936014	REC_EVENT	2.525	n/a	NET	LOCK	3	3	LOCK	ARM	0	14	[0, 0, 0]	n/a	0	0	0	n/a	n/a	0.0	0	0	0	PAL2	0	R1003P
1556.523	0.017	937260	REC_END	n/a	n/a	n/a	n/a	3	-999	n/a	n/a	-999	14	[0, 0, 0]	n/a	0	0	0	n/a	n/a	0.0	0	0	0	PAL2	0	R1003P
1556.54	0.25	937268	TEST_ORIENT	n/a	n/a	CAPE	BOMB	2	4	CAPE	PASS	0	14	[0, 0, 0]	n/a	0	0	0	n/a	n/a	0.0	0	0	0	PAL2	0	R1003P
1557.523	4.0	937760	TEST_PROBE	n/a	wordpools/wordpool_EN.txt	CAPE	BOMB	2	4	CAPE	PASS	0	14	[0, 0, 0]	n/a	0	0	0	n/a	n/a	0.0	0	0	0	PAL2	0	R1003P
1557.524	1.333	937760	REC_START	n/a	n/a	n/a	n/a	2	-999	n/a	PASS	0	14	[0, 0, 0]	n/a	0	0	0	n/a	n/a	0.0	0	0	0	PAL2	0	R1003P
1558.857	3.677	938427	REC_EVENT	1.333	n/a	CAPE	BOMB	2	4	CAPE	PASS	0	14	[0, 0, 0]	n/a	0	0	0	n/a	n/a	0.0	0	0	0	PAL2	0	R1003P
1562.534	0.007	940265	REC_END	n/a	n/a	n/a	n/a	2	-999	n/a	n/a	-999	14	[0, 0, 0]	n/a	0	0	0	n/a	n/a	0.0	0	0	0	PAL2	0	R1003P
1562.541	0.25	940269	TEST_ORIENT	n/a	n/a	MAIL	DRESS	5	5	DRESS	PASS	0	14	[0, 0, 0]	n/a	0	0	0	n/a	n/a	0.0	0	0	0	PAL2	0	R1003P
1563.558	4.0	940777	TEST_PROBE	n/a	wordpools/wordpool_EN.txt	MAIL	DRESS	5	5	DRESS	PASS	0	14	[0, 0, 0]	n/a	0	0	0	n/a	n/a	0.0	0	0	0	PAL2	0	R1003P
1563.558	2.192	940777	REC_START	n/a	n/a	n/a	n/a	5	-999	n/a	PASS	0	14	[0, 0, 0]	n/a	0	0	0	n/a	n/a	0.0	0	0	0	PAL2	0	R1003P
1565.75	2.825	941873	REC_EVENT	2.192	n/a	MAIL	DRESS	5	5	DRESS	PASS	0	14	[0, 0, 0]	n/a	0	0	0	n/a	n/a	0.0	0	0	0	PAL2	0	R1003P
1568.575	0.017	943286	REC_END	n/a	n/a	n/a	n/a	5	-999	n/a	n/a	-999	14	[0, 0, 0]	n/a	0	0	0	n/a	n/a	0.0	0	0	0	PAL2	0	R1003P
1568.592	0.25	943294	TEST_ORIENT	n/a	n/a	FUR	MULE	4	6	MULE	PASS	0	14	[0, 0, 0]	n/a	0	0	0	n/a	n/a	0.0	0	0	0	PAL2	0	R1003P
1569.559	4.0	943778	TEST_PROBE	n/a	wordpools/wordpool_EN.txt	FUR	MULE	4	6	MULE	PASS	0	14	[0, 0, 0]	n/a	0	0	0	n/a	n/a	0.0	0	0	0	PAL2	0	R1003P
