onset	duration	sample	trial_type	response_time	stim_file	study_1	study_2	serialpos	probepos	probe_word	resp_word	correct	list	test	answer	stimulation	stim_list	stim_duration	anode_label	cathode_label	amplitude	pulse_freq	n_pulses	pulse_width	experiment	session	subject
0.0	66.14	1124852	SESS_START	n/a	n/a	n/a	n/a	-999	-999	n/a	n/a	-999	-999	[0, 0, 0]	n/a	0	0	0	n/a	n/a	0.0	0	0	0	PAL2	0	R1118N
66.14	1.016	1190990	START	n/a	n/a	n/a	n/a	-999	-999	n/a	n/a	-999	-1	[-999, -999, -999]	n/a	0	-999	0	n/a	n/a	0.0	0	0	0	PAL2	0	R1118N
67.156	7.885	1192006	PROB	7.855	n/a	n/a	n/a	-999	-999	n/a	n/a	-999	-1	[5, 9, 6]	20	0	-999	0	n/a	n/a	0.0	0	0	0	PAL2	0	R1118N
75.041	3.451	1199891	PROB	3.419	n/a	n/a	n/a	-999	-999	n/a	n/a	-999	-1	[6, 5, 5]	16	0	-999	0	n/a	n/a	0.0	0	0	0	PAL2	0	R1118N
78.492	6.851	1203342	PROB	6.815	n/a	n/a	n/a	-999	-999	n/a	n/a	-999	-1	[8, 5, 6]	25	0	-999	0	n/a	n/a	0.0	0	0	0	PAL2	0	R1118N
85.343	3.668	1210192	PROB	3.668	n/a	n/a	n/a	-999	-999	n/a	n/a	-999	-1	[4, 6, 1]	11	0	-999	0	n/a	n/a	0.0	0	0	0	PAL2	0	R1118N
89.011	35.638	1213860	STOP	n/a	n/a	n/a	n/a	-999	-999	n/a	n/a	-999	-1	[-999, -999, -999]	n/a	0	-999	0	n/a	n/a	0.0	0	0	0	PAL2	0	R1118N
124.649	19.13	1249497	FEEDBACK_SHOW_ALL_PAIRS	n/a	n/a	n/a	n/a	-999	-999	n/a	n/a	-999	-999	[0, 0, 0]	n/a	0	0	0	n/a	n/a	0.0	0	0	0	PAL2	0	R1118N
143.779	10.442	1268626	ENCODING_START	n/a	n/a	n/a	n/a	0	-999	n/a	n/a	-999	1	[0, 0, 0]	n/a	0	1	0	n/a	n/a	0.0	0	0	0	PAL2	0	R1118N
154.221	0.25	1279068	STUDY_ORIENT	n/a	n/a	KEY	JEEP	1	1	JEEP	KEY	1	1	[0, 0, 0]	n/a	0	1	0	n/a	n/a	0.0	0	0	0	PAL2	0	R1118N
155.188	4.0	1280035	STUDY_PAIR	n/a	wordpools/wordpool_EN.txt	KEY	JEEP	1	1	JEEP	KEY	1	1	[0, 0, 0]	n/a	0	1	0	n/a	n/a	0.0	0	0	0	PAL2	0	R1118N
160.222	0.25	1285069	STUDY_ORIENT	n/a	n/a	BOOT	SHRIMP	2	6	SHRIMP	BOOT	1	1	[0, 0, 0]	n/a	0	1	0	n/a	n/a	0.0	0	0	0	PAL2	0	R1118N
161.205	4.0	1286052	STUDY_PAIR	n/a	wordpools/wordpool_EN.txt	BOOT	SHRIMP	2	6	SHRIMP	BOOT	1	1	[0, 0, 0]	n/a	0	1	0	n/a	n/a	0.0	0	0	0	PAL2	0	R1118N
166.223	0.25	1291069	STUDY_ORIENT	n/a	n/a	FAN	STEAK	3	5	STEAK	FAN	1	1	[0, 0, 0]	n/a	0	1	0	n/a	n/a	0.0	0	0	0	PAL2	0	R1118N
167.023	4.0	1291869	STUDY_PAIR	n/a	wordpools/wordpool_EN.txt	FAN	STEAK	3	5	STEAK	FAN	1	1	[0, 0, 0]	n/a	0	1	0	n/a	n/a	0.0	0	0	0	PAL2	0	R1118N
172.057	0.25	1296903	STUDY_ORIENT	n/a	n/a	FOAM	STOVE	4	2	FOAM	STOVE	1	1	[0, 0, 0]	n/a	0	1	0	n/a	n/a	0.0	0	0	0	PAL2	0	R1118N
172.907	4.0	1297753	STUDY_PAIR	n/a	wordpools/wordpool_EN.txt	FOAM	STOVE	4	2	FOAM	STOVE	1	1	[0, 0, 0]	n/a	0	1	0	n/a	n/a	0.0	0	0	0	PAL2	0	R1118N
177.925	0.25	1302771	STUDY_ORIENT	n/a	n/a	SLUSH	WOLF	5	3	WOLF	DRAGON	0	1	[0, 0, 0]	n/a	0	1	0	n/a	n/a	0.0	0	0	0	PAL2	0	R1118N
178.925	4.0	1303771	STUDY_PAIR	n/a	wordpools/wordpool_EN.txt	SLUSH	WOLF	5	3	WOLF	DRAGON	0	1	[0, 0, 0]	n/a	0	1	0	n/a	n/a	0.0	0	0	0	PAL2	0	R1118N
183.959	0.25	1308805	STUDY_ORIENT	n/a	n/a	PHONE	DESK	6	4	PHONE	DESK	1	1	[0, 0, 0]	n/a	0	1	0	n/a	n/a	0.0	0	0	0	PAL2	0	R1118N
184.793	4.0	1309639	STUDY_PAIR	n/a	wordpools/wordpool_EN.txt	PHONE	DESK	6	4	PHONE	DESK	1	1	[0, 0, 0]	n/a	0	1	0	n/a	n/a	0.0	0	0	0	PAL2	0	R1118N
188.811	0.999	1313656	START	n/a	n/a	n/a	n/a	-999	-999	n/a	n/a	-999	1	[-999, -999, -999]	n/a	0	1	0	n/a	n/a	0.0	0	0	0	PAL2	0	R1118N
189.81	0.017	1314655	MATH_START	n/a	n/a	n/a	n/a	-999	-999	n/a	n/a	-999	1	[0, 0, 0]	n/a	0	1	0	n/a	n/a	0.0	0	0	0	PAL2	0	R1118N
189.827	4.867	1314672	PROB	4.848	n/a	n/a	n/a	-999	-999	n/a	n/a	-999	1	[4, 2, 6]	12	0	1	0	n/a	n/a	0.0	0	0	0	PAL2	0	R1118N
194.694	3.802	1319539	PROB	3.782	n/a	n/a	n/a	-999	-999	n/a	n/a	-999	1	[4, 2, 9]	19	0	1	0	n/a	n/a	0.0	0	0	0	PAL2	0	R1118N
198.496	2.733	1323341	PROB	2.707	n/a	n/a	n/a	-999	-999	n/a	n/a	-999	1	[3, 3, 7]	13	0	1	0	n/a	n/a	0.0	0	0	0	PAL2	0	R1118N
201.229	6.167	1326074	PROB	6.142	n/a	n/a	n/a	-999	-999	n/a	n/a	-999	1	[5, 7, 8]	20	0	1	0	n/a	n/a	0.0	0	0	0	PAL2	0	R1118N
207.396	4.839	1332241	PROB	4.839	n/a	n/a	n/a	-999	-999	n/a	n/a	-999	1	[7, 9, 2]	18	0	1	0	n/a	n/a	0.0	0	0	0	PAL2	0	R1118N
212.235	0.012	1337080	STOP	n/a	n/a	n/a	n/a	-999	-999	n/a	n/a	-999	1	[-999, -999, -999]	n/a	0	1	0	n/a	n/a	0.0	0	0	0	PAL2	0	R1118N
212.247	0.0	1337092	TEST_START	n/a	n/a	n/a	n/a	-999	-999	n/a	n/a	-999	1	[0, 0, 0]	n/a	0	1	0	n/a	n/a	0.0	0	0	0	PAL2	0	R1118N
212.247	0.017	1337092	MATH_END	n/a	n/a	n/a	n/a	-999	-999	n/a	n/a	-999	1	[0, 0, 0]	n/a	0	1	0	n/a	n/a	0.0	0	0	0	PAL2	0	R1118N
212.264	0.25	1337109	TEST_ORIENT	n/a	n/a	KEY	JEEP	1	1	JEEP	KEY	1	1	[0, 0, 0]	n/a	0	1	0	n/a	n/a	0.0	0	0	0	PAL2	0	R1118N
213.01	4.6	1337855	STIM_ON	n/a	n/a	KEY	JEEP	1	1	JEEP	KEY	1	1	[0, 0, 0]	n/a	1	1	4600	PST2	PST3	1500.0	50	230	300	PAL2	0	R1118N
213.214	4.0	1338059	TEST_PROBE	n/a	wordpools/wordpool_EN.txt	KEY	JEEP	1	1	JEEP	KEY	1	1	[0, 0, 0]	n/a	1	1	4600	PST2	PST3	1500.0	50	230	300	PAL2	0	R1118N
213.215	3.01	1338060	REC_START	n/a	n/a	n/a	n/a	1	-999	n/a	KEY	1	1	[0, 0, 0]	n/a	1	1	4600	PST2	PST3	1500.0	50	230	300	PAL2	0	R1118N
216.225	2.015	1341069	REC_EVENT	3.01	n/a	KEY	JEEP	1	1	JEEP	KEY	1	1	[0, 0, 0]	n/a	1	1	4600	PST2	PST3	1500.0	50	230	300	PAL2	0	R1118N
218.24	0.008	1343084	REC_END	n/a	n/a	n/a	n/a	1	-999	n/a	n/a	-999	1	[0, 0, 0]	n/a	0	1	0	n/a	n/a	0.0	0	0	0	PAL2	0	R1118N
218.248	0.25	1343092	TEST_ORIENT	n/a	n/a	FOAM	STOVE	4	2	FOAM	STOVE	1	1	[0, 0, 0]	n/a	0	1	0	n/a	n/a	0.0	0	0	0	PAL2	0	R1118N
219.082	0.0	1343926	REC_START	n/a	n/a	n/a	n/a	4	-999	n/a	STOVE	1	1	[0, 0, 0]	n/a	0	1	0	n/a	n/a	0.0	0	0	0	PAL2	0	R1118N
219.082	4.0	1343926	TEST_PROBE	n/a	wordpools/wordpool_EN.txt	FOAM	STOVE	4	2	FOAM	STOVE	1	1	[0, 0, 0]	n/a	0	1	0	n/a	n/a	0.0	0	0	0	PAL2	0	R1118N
221.13	2.969	1345974	REC_EVENT	2.048	n/a	FOAM	STOVE	4	2	FOAM	STOVE	1	1	[0, 0, 0]	n/a	0	1	0	n/a	n/a	0.0	0	0	0	PAL2	0	R1118N
224.099	0.017	1348943	REC_END	n/a	n/a	n/a	n/a	4	-999	n/a	n/a	-999	1	[0, 0, 0]	n/a	0	1	0	n/a	n/a	0.0	0	0	0	PAL2	0	R1118N
224.116	0.25	1348960	TEST_ORIENT	n/a	n/a	SLUSH	WOLF	5	3	WOLF	DRAGON	0	1	[0, 0, 0]	n/a	0	1	0	n/a	n/a	0.0	0	0	0	PAL2	0	R1118N
224.793	4.6	1349637	STIM_ON	n/a	n/a	SLUSH	WOLF	5	3	WOLF	DRAGON	0	1	[0, 0, 0]	n/a	1	1	4600	PST2	PST3	1500.0	50	230	300	PAL2	0	R1118N
224.999	4.0	1349843	TEST_PROBE	n/a	wordpools/wordpool_EN.txt	SLUSH	WOLF	5	3	WOLF	DRAGON	0	1	[0, 0, 0]	n/a	1	1	4600	PST2	PST3	1500.0	50	230	300	PAL2	0	R1118N
225.0	3.346	1349844	REC_START	n/a	n/a	n/a	n/a	5	-999	n/a	DRAGON	0	1	[0, 0, 0]	n/a	1	1	4600	PST2	PST3	1500.0	50	230	300	PAL2	0	R1118N
228.346	1.661	1353190	REC_EVENT	3.346	n/a	SLUSH	WOLF	5	3	WOLF	DRAGON	0	1	[0, 0, 0]	n/a	1	1	4600	PST2	PST3	1500.0	50	230	300	PAL2	0	R1118N
230.007	0.01	1354851	REC_END	n/a	n/a	n/a	n/a	5	-999	n/a	n/a	-999	1	[0, 0, 0]	n/a	0	1	0	n/a	n/a	0.0	0	0	0	PAL2	0	R1118N
230.017	0.25	1354861	TEST_ORIENT	n/a	n/a	PHONE	DESK	6	4	PHONE	DESK	1	1	[0, 0, 0]	n/a	0	1	0	n/a	n/a	0.0	0	0	0	PAL2	0	R1118N
230.901	0.0	1355745	REC_START	n/a	n/a	n/a	n/a	6	-999	n/a	DESK	1	1	[0, 0, 0]	n/a	0	1	0	n/a	n/a	0.0	0	0	0	PAL2	0	R1118N
230.901	4.0	1355745	TEST_PROBE	n/a	wordpools/wordpool_EN.txt	PHONE	DESK	6	4	PHONE	DESK	1	1	[0, 0, 0]	n/a	0	1	0	n/a	n/a	0.0	0	0	0	PAL2	0	R1118N
232.015	3.903	1356859	REC_EVENT	1.114	n/a	PHONE	DESK	6	4	PHONE	DESK	1	1	[0, 0, 0]	n/a	0	1	0	n/a	n/a	0.0	0	0	0	PAL2	0	R1118N
235.918	0.017	1360762	REC_END	n/a	n/a	n/a	n/a	6	-999	n/a	n/a	-999	1	[0, 0, 0]	n/a	0	1	0	n/a	n/a	0.0	0	0	0	PAL2	0	R1118N
235.935	0.25	1360779	TEST_ORIENT	n/a	n/a	FAN	STEAK	3	5	STEAK	FAN	1	1	[0, 0, 0]	n/a	0	1	0	n/a	n/a	0.0	0	0	0	PAL2	0	R1118N
236.61	4.6	1361454	STIM_ON	n/a	n/a	FAN	STEAK	3	5	STEAK	FAN	1	1	[0, 0, 0]	n/a	1	1	4600	PST2	PST3	1500.0	50	230	300	PAL2	0	R1118N
236.818	4.0	1361662	TEST_PROBE	n/a	wordpools/wordpool_EN.txt	FAN	STEAK	3	5	STEAK	FAN	1	1	[0, 0, 0]	n/a	1	1	4600	PST2	PST3	1500.0	50	230	300	PAL2	0	R1118N
236.819	1.572	1361663	REC_START	n/a	n/a	n/a	n/a	3	-999	n/a	FAN	1	1	[0, 0, 0]	n/a	1	1	4600	PST2	PST3	1500.0	50	230	300	PAL2	0	R1118N
238.391	3.436	1363235	REC_EVENT	1.572	n/a	FAN	STEAK	3	5	STEAK	FAN	1	1	[0, 0, 0]	n/a	1	1	4600	PST2	PST3	1500.0	50	230	300	PAL2	0	R1118N
241.827	0.009	1366671	REC_END	n/a	n/a	n/a	n/a	3	-999	n/a	n/a	-999	1	[0, 0, 0]	n/a	0	1	0	n/a	n/a	0.0	0	0	0	PAL2	0	R1118N
241.836	0.25	1366680	TEST_ORIENT	n/a	n/a	BOOT	SHRIMP	2	6	SHRIMP	BOOT	1	1	[0, 0, 0]	n/a	0	1	0	n/a	n/a	0.0	0	0	0	PAL2	0	R1118N
242.752	4.0	1367596	TEST_PROBE	n/a	wordpools/wordpool_EN.txt	BOOT	SHRIMP	2	6	SHRIMP	BOOT	1	1	[0, 0, 0]	n/a	0	1	0	n/a	n/a	0.0	0	0	0	PAL2	0	R1118N
242.753	1.62	1367597	REC_START	n/a	n/a	n/a	n/a	2	-999	n/a	BOOT	1	1	[0, 0, 0]	n/a	0	1	0	n/a	n/a	0.0	0	0	0	PAL2	0	R1118N
244.373	3.387	1369216	REC_EVENT	1.62	n/a	BOOT	SHRIMP	2	6	SHRIMP	BOOT	1	1	[0, 0, 0]	n/a	0	1	0	n/a	n/a	0.0	0	0	0	PAL2	0	R1118N
247.76	0.027	1372603	REC_END	n/a	n/a	n/a	n/a	2	-999	n/a	n/a	-999	1	[0, 0, 0]	n/a	0	1	0	n/a	n/a	0.0	0	0	0	PAL2	0	R1118N
247.787	11.36	1372630	FEEDBACK_SHOW_ALL_PAIRS	n/a	n/a	n/a	n/a	2	-999	n/a	n/a	-999	1	[0, 0, 0]	n/a	0	1	0	n/a	n/a	0.0	0	0	0	PAL2	0	R1118N
259.147	10.443	1383990	ENCODING_START	n/a	n/a	n/a	n/a	0	-999	n/a	n/a	-999	2	[0, 0, 0]	n/a	0	0	0	n/a	n/a	0.0	0	0	0	PAL2	0	R1118N
269.59	0.25	1394433	STUDY_ORIENT	n/a	n/a	FLOOR	SEED	1	3	FLOOR	SEED	1	2	[0, 0, 0]	n/a	0	0	0	n/a	n/a	0.0	0	0	0	PAL2	0	R1118N
270.541	4.0	1395383	STUDY_PAIR	n/a	wordpools/wordpool_EN.txt	FLOOR	SEED	1	3	FLOOR	SEED	1	2	[0, 0, 0]	n/a	0	0	0	n/a	n/a	0.0	0	0	0	PAL2	0	R1118N
275.575	0.25	1400417	STUDY_ORIENT	n/a	n/a	BARN	PARK	2	2	BARN	PARK	1	2	[0, 0, 0]	n/a	0	0	0	n/a	n/a	0.0	0	0	0	PAL2	0	R1118N
276.443	4.0	1401285	STUDY_PAIR	n/a	wordpools/wordpool_EN.txt	BARN	PARK	2	2	BARN	PARK	1	2	[0, 0, 0]	n/a	0	0	0	n/a	n/a	0.0	0	0	0	PAL2	0	R1118N
281.477	0.25	1406319	STUDY_ORIENT	n/a	n/a	TOY	APE	3	1	TOY	TRASH	0	2	[0, 0, 0]	n/a	0	0	0	n/a	n/a	0.0	0	0	0	PAL2	0	R1118N
282.46	4.0	1407302	STUDY_PAIR	n/a	wordpools/wordpool_EN.txt	TOY	APE	3	1	TOY	TRASH	0	2	[0, 0, 0]	n/a	0	0	0	n/a	n/a	0.0	0	0	0	PAL2	0	R1118N
287.478	0.25	1412320	STUDY_ORIENT	n/a	n/a	PASTE	NEST	4	4	PASTE	n/a	0	2	[0, 0, 0]	n/a	0	0	0	n/a	n/a	0.0	0	0	0	PAL2	0	R1118N
288.41	4.0	1413252	STUDY_PAIR	n/a	wordpools/wordpool_EN.txt	PASTE	NEST	4	4	PASTE	n/a	0	2	[0, 0, 0]	n/a	0	0	0	n/a	n/a	0.0	0	0	0	PAL2	0	R1118N
293.429	0.25	1418271	STUDY_ORIENT	n/a	n/a	TRASH	CLOWN	5	5	TRASH	DOLL	0	2	[0, 0, 0]	n/a	0	0	0	n/a	n/a	0.0	0	0	0	PAL2	0	R1118N
294.245	4.0	1419087	STUDY_PAIR	n/a	wordpools/wordpool_EN.txt	TRASH	CLOWN	5	5	TRASH	DOLL	0	2	[0, 0, 0]	n/a	0	0	0	n/a	n/a	0.0	0	0	0	PAL2	0	R1118N
299.279	0.25	1424120	STUDY_ORIENT	n/a	n/a	HAWK	SPONGE	6	6	SPONGE	BOMB	0	2	[0, 0, 0]	n/a	0	0	0	n/a	n/a	0.0	0	0	0	PAL2	0	R1118N
300.179	4.0	1425020	STUDY_PAIR	n/a	wordpools/wordpool_EN.txt	HAWK	SPONGE	6	6	SPONGE	BOMB	0	2	[0, 0, 0]	n/a	0	0	0	n/a	n/a	0.0	0	0	0	PAL2	0	R1118N
304.197	0.999	1429038	START	n/a	n/a	n/a	n/a	-999	-999	n/a	n/a	-999	2	[-999, -999, -999]	n/a	0	0	0	n/a	n/a	0.0	0	0	0	PAL2	0	R1118N
305.196	0.017	1430037	MATH_START	n/a	n/a	n/a	n/a	-999	-999	n/a	n/a	-999	2	[0, 0, 0]	n/a	0	0	0	n/a	n/a	0.0	0	0	0	PAL2	0	R1118N
305.213	6.668	1430054	PROB	6.646	n/a	n/a	n/a	-999	-999	n/a	n/a	-999	2	[4, 5, 3]	12	0	0	0	n/a	n/a	0.0	0	0	0	PAL2	0	R1118N
311.881	4.967	1436722	PROB	4.938	n/a	n/a	n/a	-999	-999	n/a	n/a	-999	2	[2, 8, 7]	17	0	0	0	n/a	n/a	0.0	0	0	0	PAL2	0	R1118N
316.848	4.518	1441689	PROB	4.483	n/a	n/a	n/a	-999	-999	n/a	n/a	-999	2	[6, 2, 6]	18	0	0	0	n/a	n/a	0.0	0	0	0	PAL2	0	R1118N
321.366	2.15	1446207	PROB	2.126	n/a	n/a	n/a	-999	-999	n/a	n/a	-999	2	[3, 3, 3]	9	0	0	0	n/a	n/a	0.0	0	0	0	PAL2	0	R1118N
323.516	6.735	1448357	PROB	6.735	n/a	n/a	n/a	-999	-999	n/a	n/a	-999	2	[9, 5, 6]	20	0	0	0	n/a	n/a	0.0	0	0	0	PAL2	0	R1118N
330.251	0.016	1455091	STOP	n/a	n/a	n/a	n/a	-999	-999	n/a	n/a	-999	2	[-999, -999, -999]	n/a	0	0	0	n/a	n/a	0.0	0	0	0	PAL2	0	R1118N
330.267	0.0	1455107	MATH_END	n/a	n/a	n/a	n/a	-999	-999	n/a	n/a	-999	2	[0, 0, 0]	n/a	0	0	0	n/a	n/a	0.0	0	0	0	PAL2	0	R1118N
330.267	0.017	1455107	TEST_START	n/a	n/a	n/a	n/a	-999	-999	n/a	n/a	-999	2	[0, 0, 0]	n/a	0	0	0	n/a	n/a	0.0	0	0	0	PAL2	0	R1118N
330.284	0.25	1455124	TEST_ORIENT	n/a	n/a	TOY	APE	3	1	TOY	TRASH	0	2	[0, 0, 0]	n/a	0	0	0	n/a	n/a	0.0	0	0	0	PAL2	0	R1118N
331.284	4.0	1456124	TEST_PROBE	n/a	wordpools/wordpool_EN.txt	TOY	APE	3	1	TOY	TRASH	0	2	[0, 0, 0]	n/a	0	0	0	n/a	n/a	0.0	0	0	0	PAL2	0	R1118N
331.285	2.127	1456125	REC_START	n/a	n/a	n/a	n/a	3	-999	n/a	TRASH	0	2	[0, 0, 0]	n/a	0	0	0	n/a	n/a	0.0	0	0	0	PAL2	0	R1118N
333.412	2.897	1458252	REC_EVENT	2.127	n/a	TOY	APE	3	1	TOY	TRASH	0	2	[0, 0, 0]	n/a	0	0	0	n/a	n/a	0.0	0	0	0	PAL2	0	R1118N
336.309	0.009	1461149	REC_END	n/a	n/a	n/a	n/a	3	-999	n/a	n/a	-999	2	[0, 0, 0]	n/a	0	0	0	n/a	n/a	0.0	0	0	0	PAL2	0	R1118N
336.318	0.25	1461158	TEST_ORIENT	n/a	n/a	BARN	PARK	2	2	BARN	PARK	1	2	[0, 0, 0]	n/a	0	0	0	n/a	n/a	0.0	0	0	0	PAL2	0	R1118N
337.335	4.0	1462175	TEST_PROBE	n/a	wordpools/wordpool_EN.txt	BARN	PARK	2	2	BARN	PARK	1	2	[0, 0, 0]	n/a	0	0	0	n/a	n/a	0.0	0	0	0	PAL2	0	R1118N
337.336	2.094	1462176	REC_START	n/a	n/a	n/a	n/a	2	-999	n/a	PARK	1	2	[0, 0, 0]	n/a	0	0	0	n/a	n/a	0.0	0	0	0	PAL2	0	R1118N
339.43	2.93	1464270	REC_EVENT	2.094	n/a	BARN	PARK	2	2	BARN	PARK	1	2	[0, 0, 0]	n/a	0	0	0	n/a	n/a	0.0	0	0	0	PAL2	0	R1118N
342.36	0.009	1467200	REC_END	n/a	n/a	n/a	n/a	2	-999	n/a	n/a	-999	2	[0, 0, 0]	n/a	0	0	0	n/a	n/a	0.0	0	0	0	PAL2	0	R1118N
342.369	0.25	1467209	TEST_ORIENT	n/a	n/a	FLOOR	SEED	1	3	FLOOR	SEED	1	2	[0, 0, 0]	n/a	0	0	0	n/a	n/a	0.0	0	0	0	PAL2	0	R1118N
343.369	4.0	1468209	TEST_PROBE	n/a	wordpools/wordpool_EN.txt	FLOOR	SEED	1	3	FLOOR	SEED	1	2	[0, 0, 0]	n/a	0	0	0	n/a	n/a	0.0	0	0	0	PAL2	0	R1118N
343.37	1.309	1468210	REC_START	n/a	n/a	n/a	n/a	1	-999	n/a	SEED	1	2	[0, 0, 0]	n/a	0	0	0	n/a	n/a	0.0	0	0	0	PAL2	0	R1118N
344.679	3.699	1469519	REC_EVENT	1.309	n/a	FLOOR	SEED	1	3	FLOOR	SEED	1	2	[0, 0, 0]	n/a	0	0	0	n/a	n/a	0.0	0	0	0	PAL2	0	R1118N
348.378	0.009	1473218	REC_END	n/a	n/a	n/a	n/a	1	-999	n/a	n/a	-999	2	[0, 0, 0]	n/a	0	0	0	n/a	n/a	0.0	0	0	0	PAL2	0	R1118N
348.387	0.25	1473227	TEST_ORIENT	n/a	n/a	PASTE	NEST	4	4	PASTE	n/a	0	2	[0, 0, 0]	n/a	0	0	0	n/a	n/a	0.0	0	0	0	PAL2	0	R1118N
349.221	0.0	1474061	REC_START	n/a	n/a	n/a	n/a	4	-999	n/a	n/a	0	2	[0, 0, 0]	n/a	0	0	0	n/a	n/a	0.0	0	0	0	PAL2	0	R1118N
349.221	4.0	1474061	TEST_PROBE	n/a	wordpools/wordpool_EN.txt	PASTE	NEST	4	4	PASTE	n/a	0	2	[0, 0, 0]	n/a	0	0	0	n/a	n/a	0.0	0	0	0	PAL2	0	R1118N
354.236	0.002	1479075	REC_EVENT	5.015	n/a	PASTE	NEST	4	4	PASTE	<>	0	2	[0, 0, 0]	n/a	0	0	0	n/a	n/a	0.0	0	0	0	PAL2	0	R1118N
354.238	0.016	1479077	REC_END	n/a	n/a	n/a	n/a	4	-999	n/a	n/a	-999	2	[0, 0, 0]	n/a	0	0	0	n/a	n/a	0.0	0	0	0	PAL2	0	R1118N
354.254	0.25	1479093	TEST_ORIENT	n/a	n/a	TRASH	CLOWN	5	5	TRASH	DOLL	0	2	[0, 0, 0]	n/a	0	0	0	n/a	n/a	0.0	0	0	0	PAL2	0	R1118N
355.172	4.0	1480011	TEST_PROBE	n/a	wordpools/wordpool_EN.txt	TRASH	CLOWN	5	5	TRASH	DOLL	0	2	[0, 0, 0]	n/a	0	0	0	n/a	n/a	0.0	0	0	0	PAL2	0	R1118N
355.172	2.02	1480011	REC_START	n/a	n/a	n/a	n/a	5	-999	n/a	DOLL	0	2	[0, 0, 0]	n/a	0	0	0	n/a	n/a	0.0	0	0	0	PAL2	0	R1118N
357.192	2.997	1482031	REC_EVENT	2.02	n/a	TRASH	CLOWN	5	5	TRASH	DOLL	0	2	[0, 0, 0]	n/a	0	0	0	n/a	n/a	0.0	0	0	0	PAL2	0	R1118N
360.189	0.017	1485028	REC_END	n/a	n/a	n/a	n/a	5	-999	n/a	n/a	-999	2	[0, 0, 0]	n/a	0	0	0	n/a	n/a	0.0	0	0	0	PAL2	0	R1118N
360.206	0.25	1485045	TEST_ORIENT	n/a	n/a	HAWK	SPONGE	6	6	SPONGE	BOMB	0	2	[0, 0, 0]	n/a	0	0	0	n/a	n/a	0.0	0	0	0	PAL2	0	R1118N
361.023	0.0	1485862	REC_START	n/a	n/a	n/a	n/a	6	-999	n/a	BOMB	0	2	[0, 0, 0]	n/a	0	0	0	n/a	n/a	0.0	0	0	0	PAL2	0	R1118N
361.023	4.0	1485862	TEST_PROBE	n/a	wordpools/wordpool_EN.txt	HAWK	SPONGE	6	6	SPONGE	BOMB	0	2	[0, 0, 0]	n/a	0	0	0	n/a	n/a	0.0	0	0	0	PAL2	0	R1118N
364.706	1.341	1489545	REC_EVENT	3.683	n/a	HAWK	SPONGE	6	6	SPONGE	BOMB	0	2	[0, 0, 0]	n/a	0	0	0	n/a	n/a	0.0	0	0	0	PAL2	0	R1118N
366.047	0.026	1490886	REC_END	n/a	n/a	n/a	n/a	6	-999	n/a	n/a	-999	2	[0, 0, 0]	n/a	0	0	0	n/a	n/a	0.0	0	0	0	PAL2	0	R1118N
366.073	9.81	1490912	FEEDBACK_SHOW_ALL_PAIRS	n/a	n/a	n/a	n/a	6	-999	n/a	n/a	-999	2	[0, 0, 0]	n/a	0	0	0	n/a	n/a	0.0	0	0	0	PAL2	0	R1118N
375.883	10.444	1500722	ENCODING_START	n/a	n/a	n/a	n/a	0	-999	n/a	n/a	-999	3	[0, 0, 0]	n/a	0	1	0	n/a	n/a	0.0	0	0	0	PAL2	0	R1118N
386.327	0.25	1511165	STUDY_ORIENT	n/a	n/a	FOG	MOUSE	1	1	MOUSE	n/a	0	3	[0, 0, 0]	n/a	0	1	0	n/a	n/a	0.0	0	0	0	PAL2	0	R1118N
387.08	4.6	1511918	STIM_ON	n/a	n/a	FOG	MOUSE	1	1	MOUSE	n/a	0	3	[0, 0, 0]	n/a	1	1	4600	PST2	PST3	1500.0	50	230	300	PAL2	0	R1118N
387.294	4.0	1512132	STUDY_PAIR	n/a	wordpools/wordpool_EN.txt	FOG	MOUSE	1	1	MOUSE	n/a	0	3	[0, 0, 0]	n/a	1	1	4600	PST2	PST3	1500.0	50	230	300	PAL2	0	R1118N
392.328	0.25	1517166	STUDY_ORIENT	n/a	n/a	NOSE	CLIFF	2	4	NOSE	CLIFF	1	3	[0, 0, 0]	n/a	0	1	0	n/a	n/a	0.0	0	0	0	PAL2	0	R1118N
393.261	4.0	1518099	STUDY_PAIR	n/a	wordpools/wordpool_EN.txt	NOSE	CLIFF	2	4	NOSE	CLIFF	1	3	[0, 0, 0]	n/a	0	1	0	n/a	n/a	0.0	0	0	0	PAL2	0	R1118N
398.279	0.25	1523117	STUDY_ORIENT	n/a	n/a	DRUM	PLATE	3	3	DRUM	MOUSE	0	3	[0, 0, 0]	n/a	0	1	0	n/a	n/a	0.0	0	0	0	PAL2	0	R1118N
398.887	4.6	1523725	STIM_ON	n/a	n/a	DRUM	PLATE	3	3	DRUM	MOUSE	0	3	[0, 0, 0]	n/a	1	1	4600	PST2	PST3	1500.0	50	230	300	PAL2	0	R1118N
399.096	4.0	1523934	STUDY_PAIR	n/a	wordpools/wordpool_EN.txt	DRUM	PLATE	3	3	DRUM	MOUSE	0	3	[0, 0, 0]	n/a	1	1	4600	PST2	PST3	1500.0	50	230	300	PAL2	0	R1118N
404.13	0.25	1528968	STUDY_ORIENT	n/a	n/a	ICE	SUIT	4	6	SUIT	ICE	1	3	[0, 0, 0]	n/a	0	1	0	n/a	n/a	0.0	0	0	0	PAL2	0	R1118N
405.113	4.0	1529951	STUDY_PAIR	n/a	wordpools/wordpool_EN.txt	ICE	SUIT	4	6	SUIT	ICE	1	3	[0, 0, 0]	n/a	0	1	0	n/a	n/a	0.0	0	0	0	PAL2	0	R1118N
410.131	0.25	1534968	STUDY_ORIENT	n/a	n/a	BAT	TOAST	5	5	TOAST	SHARK	0	3	[0, 0, 0]	n/a	0	1	0	n/a	n/a	0.0	0	0	0	PAL2	0	R1118N
410.723	4.6	1535560	STIM_ON	n/a	n/a	BAT	TOAST	5	5	TOAST	SHARK	0	3	[0, 0, 0]	n/a	1	1	4600	PST2	PST3	1500.0	50	230	300	PAL2	0	R1118N
410.931	4.0	1535768	STUDY_PAIR	n/a	wordpools/wordpool_EN.txt	BAT	TOAST	5	5	TOAST	SHARK	0	3	[0, 0, 0]	n/a	1	1	4600	PST2	PST3	1500.0	50	230	300	PAL2	0	R1118N
415.965	0.25	1540802	STUDY_ORIENT	n/a	n/a	FORK	TOOL	6	2	FORK	TOOL	1	3	[0, 0, 0]	n/a	0	1	0	n/a	n/a	0.0	0	0	0	PAL2	0	R1118N
416.782	4.0	1541619	STUDY_PAIR	n/a	wordpools/wordpool_EN.txt	FORK	TOOL	6	2	FORK	TOOL	1	3	[0, 0, 0]	n/a	0	1	0	n/a	n/a	0.0	0	0	0	PAL2	0	R1118N
420.8	0.999	1545637	START	n/a	n/a	n/a	n/a	-999	-999	n/a	n/a	-999	3	[-999, -999, -999]	n/a	0	1	0	n/a	n/a	0.0	0	0	0	PAL2	0	R1118N
421.799	0.017	1546636	MATH_START	n/a	n/a	n/a	n/a	-999	-999	n/a	n/a	-999	3	[0, 0, 0]	n/a	0	1	0	n/a	n/a	0.0	0	0	0	PAL2	0	R1118N
421.816	5.401	1546653	PROB	5.371	n/a	n/a	n/a	-999	-999	n/a	n/a	-999	3	[1, 6, 7]	14	0	1	0	n/a	n/a	0.0	0	0	0	PAL2	0	R1118N
427.217	7.085	1552054	PROB	7.066	n/a	n/a	n/a	-999	-999	n/a	n/a	-999	3	[9, 6, 6]	22	0	1	0	n/a	n/a	0.0	0	0	0	PAL2	0	R1118N
434.302	7.661	1559139	PROB	7.661	n/a	n/a	n/a	-999	-999	n/a	n/a	-999	3	[9, 8, 5]	23	0	1	0	n/a	n/a	0.0	0	0	0	PAL2	0	R1118N
441.963	0.007	1566799	STOP	n/a	n/a	n/a	n/a	-999	-999	n/a	n/a	-999	3	[-999, -999, -999]	n/a	0	1	0	n/a	n/a	0.0	0	0	0	PAL2	0	R1118N
441.97	0.0	1566806	MATH_END	n/a	n/a	n/a	n/a	-999	-999	n/a	n/a	-999	3	[0, 0, 0]	n/a	0	1	0	n/a	n/a	0.0	0	0	0	PAL2	0	R1118N
441.97	0.016	1566806	TEST_START	n/a	n/a	n/a	n/a	-999	-999	n/a	n/a	-999	3	[0, 0, 0]	n/a	0	1	0	n/a	n/a	0.0	0	0	0	PAL2	0	R1118N
441.986	0.25	1566822	TEST_ORIENT	n/a	n/a	FOG	MOUSE	1	1	MOUSE	n/a	0	3	[0, 0, 0]	n/a	0	1	0	n/a	n/a	0.0	0	0	0	PAL2	0	R1118N
442.82	4.0	1567656	TEST_PROBE	n/a	wordpools/wordpool_EN.txt	FOG	MOUSE	1	1	MOUSE	n/a	0	3	[0, 0, 0]	n/a	0	1	0	n/a	n/a	0.0	0	0	0	PAL2	0	R1118N
442.82	3.424	1567656	REC_START	n/a	n/a	n/a	n/a	1	-999	n/a	n/a	0	3	[0, 0, 0]	n/a	0	1	0	n/a	n/a	0.0	0	0	0	PAL2	0	R1118N
446.244	1.593	1571080	REC_EVENT	3.424	n/a	FOG	MOUSE	1	1	MOUSE	<>	0	3	[0, 0, 0]	n/a	0	1	0	n/a	n/a	0.0	0	0	0	PAL2	0	R1118N
447.837	0.017	1572673	REC_END	n/a	n/a	n/a	n/a	1	-999	n/a	n/a	-999	3	[0, 0, 0]	n/a	0	1	0	n/a	n/a	0.0	0	0	0	PAL2	0	R1118N
447.854	0.25	1572690	TEST_ORIENT	n/a	n/a	FORK	TOOL	6	2	FORK	TOOL	1	3	[0, 0, 0]	n/a	0	1	0	n/a	n/a	0.0	0	0	0	PAL2	0	R1118N
448.854	4.0	1573690	TEST_PROBE	n/a	wordpools/wordpool_EN.txt	FORK	TOOL	6	2	FORK	TOOL	1	3	[0, 0, 0]	n/a	0	1	0	n/a	n/a	0.0	0	0	0	PAL2	0	R1118N
448.855	1.51	1573691	REC_START	n/a	n/a	n/a	n/a	6	-999	n/a	TOOL	1	3	[0, 0, 0]	n/a	0	1	0	n/a	n/a	0.0	0	0	0	PAL2	0	R1118N
450.365	3.506	1575201	REC_EVENT	1.51	n/a	FORK	TOOL	6	2	FORK	TOOL	1	3	[0, 0, 0]	n/a	0	1	0	n/a	n/a	0.0	0	0	0	PAL2	0	R1118N
453.871	0.017	1578707	REC_END	n/a	n/a	n/a	n/a	6	-999	n/a	n/a	-999	3	[0, 0, 0]	n/a	0	1	0	n/a	n/a	0.0	0	0	0	PAL2	0	R1118N
453.888	0.25	1578724	TEST_ORIENT	n/a	n/a	DRUM	PLATE	3	3	DRUM	MOUSE	0	3	[0, 0, 0]	n/a	0	1	0	n/a	n/a	0.0	0	0	0	PAL2	0	R1118N
454.805	4.0	1579641	TEST_PROBE	n/a	wordpools/wordpool_EN.txt	DRUM	PLATE	3	3	DRUM	MOUSE	0	3	[0, 0, 0]	n/a	0	1	0	n/a	n/a	0.0	0	0	0	PAL2	0	R1118N
454.805	2.938	1579641	REC_START	n/a	n/a	n/a	n/a	3	-999	n/a	MOUSE	0	3	[0, 0, 0]	n/a	0	1	0	n/a	n/a	0.0	0	0	0	PAL2	0	R1118N
457.743	2.079	1582579	REC_EVENT	2.938	n/a	DRUM	PLATE	3	3	DRUM	MOUSE	0	3	[0, 0, 0]	n/a	0	1	0	n/a	n/a	0.0	0	0	0	PAL2	0	R1118N
459.822	0.017	1584658	REC_END	n/a	n/a	n/a	n/a	3	-999	n/a	n/a	-999	3	[0, 0, 0]	n/a	0	1	0	n/a	n/a	0.0	0	0	0	PAL2	0	R1118N
459.839	0.25	1584675	TEST_ORIENT	n/a	n/a	NOSE	CLIFF	2	4	NOSE	CLIFF	1	3	[0, 0, 0]	n/a	0	1	0	n/a	n/a	0.0	0	0	0	PAL2	0	R1118N
460.689	4.0	1585525	TEST_PROBE	n/a	wordpools/wordpool_EN.txt	NOSE	CLIFF	2	4	NOSE	CLIFF	1	3	[0, 0, 0]	n/a	0	1	0	n/a	n/a	0.0	0	0	0	PAL2	0	R1118N
460.69	1.346	1585526	REC_START	n/a	n/a	n/a	n/a	2	-999	n/a	CLIFF	1	3	[0, 0, 0]	n/a	0	1	0	n/a	n/a	0.0	0	0	0	PAL2	0	R1118N
462.036	3.661	1586871	REC_EVENT	1.346	n/a	NOSE	CLIFF	2	4	NOSE	CLIFF	1	3	[0, 0, 0]	n/a	0	1	0	n/a	n/a	0.0	0	0	0	PAL2	0	R1118N
465.697	0.01	1590532	REC_END	n/a	n/a	n/a	n/a	2	-999	n/a	n/a	-999	3	[0, 0, 0]	n/a	0	1	0	n/a	n/a	0.0	0	0	0	PAL2	0	R1118N
465.707	0.25	1590542	TEST_ORIENT	n/a	n/a	BAT	TOAST	5	5	TOAST	SHARK	0	3	[0, 0, 0]	n/a	0	1	0	n/a	n/a	0.0	0	0	0	PAL2	0	R1118N
466.574	4.0	1591409	TEST_PROBE	n/a	wordpools/wordpool_EN.txt	BAT	TOAST	5	5	TOAST	SHARK	0	3	[0, 0, 0]	n/a	0	1	0	n/a	n/a	0.0	0	0	0	PAL2	0	R1118N
466.574	3.666	1591409	REC_START	n/a	n/a	n/a	n/a	5	-999	n/a	SHARK	0	3	[0, 0, 0]	n/a	0	1	0	n/a	n/a	0.0	0	0	0	PAL2	0	R1118N
470.24	1.351	1595075	REC_EVENT	3.666	n/a	BAT	TOAST	5	5	TOAST	SHARK	0	3	[0, 0, 0]	n/a	0	1	0	n/a	n/a	0.0	0	0	0	PAL2	0	R1118N
471.591	0.017	1596426	REC_END	n/a	n/a	n/a	n/a	5	-999	n/a	n/a	-999	3	[0, 0, 0]	n/a	0	1	0	n/a	n/a	0.0	0	0	0	PAL2	0	R1118N
471.608	0.25	1596443	TEST_ORIENT	n/a	n/a	ICE	SUIT	4	6	SUIT	ICE	1	3	[0, 0, 0]	n/a	0	1	0	n/a	n/a	0.0	0	0	0	PAL2	0	R1118N
472.541	4.0	1597376	TEST_PROBE	n/a	wordpools/wordpool_EN.txt	ICE	SUIT	4	6	SUIT	ICE	1	3	[0, 0, 0]	n/a	0	1	0	n/a	n/a	0.0	0	0	0	PAL2	0	R1118N
472.542	1.135	1597377	REC_START	n/a	n/a	n/a	n/a	4	-999	n/a	ICE	1	3	[0, 0, 0]	n/a	0	1	0	n/a	n/a	0.0	0	0	0	PAL2	0	R1118N
473.677	3.872	1598512	REC_EVENT	1.135	n/a	ICE	SUIT	4	6	SUIT	ICE	1	3	[0, 0, 0]	n/a	0	1	0	n/a	n/a	0.0	0	0	0	PAL2	0	R1118N
477.549	0.027	1602384	REC_END	n/a	n/a	n/a	n/a	4	-999	n/a	n/a	-999	3	[0, 0, 0]	n/a	0	1	0	n/a	n/a	0.0	0	0	0	PAL2	0	R1118N
477.576	9.483	1602411	FEEDBACK_SHOW_ALL_PAIRS	n/a	n/a	n/a	n/a	4	-999	n/a	n/a	-999	3	[0, 0, 0]	n/a	0	1	0	n/a	n/a	0.0	0	0	0	PAL2	0	R1118N
487.059	10.453	1611894	ENCODING_START	n/a	n/a	n/a	n/a	0	-999	n/a	n/a	-999	4	[0, 0, 0]	n/a	0	1	0	n/a	n/a	0.0	0	0	0	PAL2	0	R1118N
497.512	0.25	1622346	STUDY_ORIENT	n/a	n/a	BIRD	CANE	1	1	BIRD	n/a	0	4	[0, 0, 0]	n/a	0	1	0	n/a	n/a	0.0	0	0	0	PAL2	0	R1118N
498.362	4.0	1623196	STUDY_PAIR	n/a	wordpools/wordpool_EN.txt	BIRD	CANE	1	1	BIRD	n/a	0	4	[0, 0, 0]	n/a	0	1	0	n/a	n/a	0.0	0	0	0	PAL2	0	R1118N
503.38	0.25	1628214	STUDY_ORIENT	n/a	n/a	MAP	CHIN	2	4	MAP	CLIFF	0	4	[0, 0, 0]	n/a	0	1	0	n/a	n/a	0.0	0	0	0	PAL2	0	R1118N
504.263	4.0	1629097	STUDY_PAIR	n/a	wordpools/wordpool_EN.txt	MAP	CHIN	2	4	MAP	CLIFF	0	4	[0, 0, 0]	n/a	0	1	0	n/a	n/a	0.0	0	0	0	PAL2	0	R1118N
509.281	0.25	1634115	STUDY_ORIENT	n/a	n/a	STAR	JUICE	3	3	JUICE	STAR	1	4	[0, 0, 0]	n/a	0	1	0	n/a	n/a	0.0	0	0	0	PAL2	0	R1118N
510.147	4.0	1634981	STUDY_PAIR	n/a	wordpools/wordpool_EN.txt	STAR	JUICE	3	3	JUICE	STAR	1	4	[0, 0, 0]	n/a	0	1	0	n/a	n/a	0.0	0	0	0	PAL2	0	R1118N
515.165	0.25	1639999	STUDY_ORIENT	n/a	n/a	STRING	FLEA	4	6	FLEA	STRING	1	4	[0, 0, 0]	n/a	0	1	0	n/a	n/a	0.0	0	0	0	PAL2	0	R1118N
516.149	4.0	1640983	STUDY_PAIR	n/a	wordpools/wordpool_EN.txt	STRING	FLEA	4	6	FLEA	STRING	1	4	[0, 0, 0]	n/a	0	1	0	n/a	n/a	0.0	0	0	0	PAL2	0	R1118N
521.183	0.25	1646016	STUDY_ORIENT	n/a	n/a	STREET	PIT	5	5	PIT	n/a	0	4	[0, 0, 0]	n/a	0	1	0	n/a	n/a	0.0	0	0	0	PAL2	0	R1118N
522.067	4.0	1646900	STUDY_PAIR	n/a	wordpools/wordpool_EN.txt	STREET	PIT	5	5	PIT	n/a	0	4	[0, 0, 0]	n/a	0	1	0	n/a	n/a	0.0	0	0	0	PAL2	0	R1118N
527.101	0.25	1651934	STUDY_ORIENT	n/a	n/a	LAMP	STRAW	6	2	LAMP	SHADE	0	4	[0, 0, 0]	n/a	0	1	0	n/a	n/a	0.0	0	0	0	PAL2	0	R1118N
527.934	4.0	1652767	STUDY_PAIR	n/a	wordpools/wordpool_EN.txt	LAMP	STRAW	6	2	LAMP	SHADE	0	4	[0, 0, 0]	n/a	0	1	0	n/a	n/a	0.0	0	0	0	PAL2	0	R1118N
531.952	0.999	1656785	START	n/a	n/a	n/a	n/a	-999	-999	n/a	n/a	-999	4	[-999, -999, -999]	n/a	0	1	0	n/a	n/a	0.0	0	0	0	PAL2	0	R1118N
532.951	0.017	1657784	MATH_START	n/a	n/a	n/a	n/a	-999	-999	n/a	n/a	-999	4	[0, 0, 0]	n/a	0	1	0	n/a	n/a	0.0	0	0	0	PAL2	0	R1118N
532.968	8.135	1657801	PROB	8.107	n/a	n/a	n/a	-999	-999	n/a	n/a	-999	4	[9, 4, 8]	24	0	1	0	n/a	n/a	0.0	0	0	0	PAL2	0	R1118N
541.103	2.217	1665936	PROB	2.188	n/a	n/a	n/a	-999	-999	n/a	n/a	-999	4	[2, 4, 1]	7	0	1	0	n/a	n/a	0.0	0	0	0	PAL2	0	R1118N
543.32	2.75	1668153	PROB	2.731	n/a	n/a	n/a	-999	-999	n/a	n/a	-999	4	[3, 7, 6]	16	0	1	0	n/a	n/a	0.0	0	0	0	PAL2	0	R1118N
546.07	2.851	1670902	PROB	2.829	n/a	n/a	n/a	-999	-999	n/a	n/a	-999	4	[4, 5, 5]	14	0	1	0	n/a	n/a	0.0	0	0	0	PAL2	0	R1118N
548.921	6.618	1673753	PROB	6.618	n/a	n/a	n/a	-999	-999	n/a	n/a	-999	4	[2, 9, 7]	18	0	1	0	n/a	n/a	0.0	0	0	0	PAL2	0	R1118N
555.539	0.016	1680371	STOP	n/a	n/a	n/a	n/a	-999	-999	n/a	n/a	-999	4	[-999, -999, -999]	n/a	0	1	0	n/a	n/a	0.0	0	0	0	PAL2	0	R1118N
555.555	0.0	1680387	MATH_END	n/a	n/a	n/a	n/a	-999	-999	n/a	n/a	-999	4	[0, 0, 0]	n/a	0	1	0	n/a	n/a	0.0	0	0	0	PAL2	0	R1118N
555.555	0.017	1680387	TEST_START	n/a	n/a	n/a	n/a	-999	-999	n/a	n/a	-999	4	[0, 0, 0]	n/a	0	1	0	n/a	n/a	0.0	0	0	0	PAL2	0	R1118N
555.572	0.25	1680404	TEST_ORIENT	n/a	n/a	BIRD	CANE	1	1	BIRD	n/a	0	4	[0, 0, 0]	n/a	0	1	0	n/a	n/a	0.0	0	0	0	PAL2	0	R1118N
556.233	4.6	1681065	STIM_ON	n/a	n/a	BIRD	CANE	1	1	BIRD	n/a	0	4	[0, 0, 0]	n/a	1	1	4600	PST2	PST3	1500.0	50	230	300	PAL2	0	R1118N
556.44	4.0	1681272	TEST_PROBE	n/a	wordpools/wordpool_EN.txt	BIRD	CANE	1	1	BIRD	n/a	0	4	[0, 0, 0]	n/a	1	1	4600	PST2	PST3	1500.0	50	230	300	PAL2	0	R1118N
556.441	3.028	1681273	REC_START	n/a	n/a	n/a	n/a	1	-999	n/a	n/a	0	4	[0, 0, 0]	n/a	1	1	4600	PST2	PST3	1500.0	50	230	300	PAL2	0	R1118N
559.469	1.995	1684301	REC_EVENT	3.028	n/a	BIRD	CANE	1	1	BIRD	<>	0	4	[0, 0, 0]	n/a	1	1	4600	PST2	PST3	1500.0	50	230	300	PAL2	0	R1118N
561.464	0.01	1686296	REC_END	n/a	n/a	n/a	n/a	1	-999	n/a	n/a	-999	4	[0, 0, 0]	n/a	0	1	0	n/a	n/a	0.0	0	0	0	PAL2	0	R1118N
561.474	0.25	1686306	TEST_ORIENT	n/a	n/a	LAMP	STRAW	6	2	LAMP	SHADE	0	4	[0, 0, 0]	n/a	0	1	0	n/a	n/a	0.0	0	0	0	PAL2	0	R1118N
562.356	4.0	1687188	TEST_PROBE	n/a	wordpools/wordpool_EN.txt	LAMP	STRAW	6	2	LAMP	SHADE	0	4	[0, 0, 0]	n/a	0	1	0	n/a	n/a	0.0	0	0	0	PAL2	0	R1118N
562.357	3.095	1687189	REC_START	n/a	n/a	n/a	n/a	6	-999	n/a	SHADE	0	4	[0, 0, 0]	n/a	0	1	0	n/a	n/a	0.0	0	0	0	PAL2	0	R1118N
565.452	1.905	1690284	REC_EVENT	3.095	n/a	LAMP	STRAW	6	2	LAMP	SHADE	0	4	[0, 0, 0]	n/a	0	1	0	n/a	n/a	0.0	0	0	0	PAL2	0	R1118N
567.357	0.017	1692189	REC_END	n/a	n/a	n/a	n/a	6	-999	n/a	n/a	-999	4	[0, 0, 0]	n/a	0	1	0	n/a	n/a	0.0	0	0	0	PAL2	0	R1118N
567.374	0.25	1692206	TEST_ORIENT	n/a	n/a	STAR	JUICE	3	3	JUICE	STAR	1	4	[0, 0, 0]	n/a	0	1	0	n/a	n/a	0.0	0	0	0	PAL2	0	R1118N
568.039	4.6	1692871	STIM_ON	n/a	n/a	STAR	JUICE	3	3	JUICE	STAR	1	4	[0, 0, 0]	n/a	1	1	4600	PST2	PST3	1500.0	50	230	300	PAL2	0	R1118N
568.241	4.0	1693073	TEST_PROBE	n/a	wordpools/wordpool_EN.txt	STAR	JUICE	3	3	JUICE	STAR	1	4	[0, 0, 0]	n/a	1	1	4600	PST2	PST3	1500.0	50	230	300	PAL2	0	R1118N
568.241	1.798	1693073	REC_START	n/a	n/a	n/a	n/a	3	-999	n/a	STAR	1	4	[0, 0, 0]	n/a	1	1	4600	PST2	PST3	1500.0	50	230	300	PAL2	0	R1118N
570.039	3.219	1694871	REC_EVENT	1.798	n/a	STAR	JUICE	3	3	JUICE	STAR	1	4	[0, 0, 0]	n/a	1	1	4600	PST2	PST3	1500.0	50	230	300	PAL2	0	R1118N
573.258	0.017	1698089	REC_END	n/a	n/a	n/a	n/a	3	-999	n/a	n/a	-999	4	[0, 0, 0]	n/a	0	1	0	n/a	n/a	0.0	0	0	0	PAL2	0	R1118N
573.275	0.25	1698106	TEST_ORIENT	n/a	n/a	MAP	CHIN	2	4	MAP	CLIFF	0	4	[0, 0, 0]	n/a	0	1	0	n/a	n/a	0.0	0	0	0	PAL2	0	R1118N
574.192	4.0	1699023	TEST_PROBE	n/a	wordpools/wordpool_EN.txt	MAP	CHIN	2	4	MAP	CLIFF	0	4	[0, 0, 0]	n/a	0	1	0	n/a	n/a	0.0	0	0	0	PAL2	0	R1118N
574.192	2.106	1699023	REC_START	n/a	n/a	n/a	n/a	2	-999	n/a	CLIFF	0	4	[0, 0, 0]	n/a	0	1	0	n/a	n/a	0.0	0	0	0	PAL2	0	R1118N
576.298	2.911	1701129	REC_EVENT	2.106	n/a	MAP	CHIN	2	4	MAP	CLIFF	0	4	[0, 0, 0]	n/a	0	1	0	n/a	n/a	0.0	0	0	0	PAL2	0	R1118N
579.209	0.017	1704040	REC_END	n/a	n/a	n/a	n/a	2	-999	n/a	n/a	-999	4	[0, 0, 0]	n/a	0	1	0	n/a	n/a	0.0	0	0	0	PAL2	0	R1118N
579.226	0.25	1704057	TEST_ORIENT	n/a	n/a	STREET	PIT	5	5	PIT	n/a	0	4	[0, 0, 0]	n/a	0	1	0	n/a	n/a	0.0	0	0	0	PAL2	0	R1118N
579.834	4.6	1704665	STIM_ON	n/a	n/a	STREET	PIT	5	5	PIT	n/a	0	4	[0, 0, 0]	n/a	1	1	4600	PST2	PST3	1500.0	50	230	300	PAL2	0	R1118N
580.043	4.0	1704874	TEST_PROBE	n/a	wordpools/wordpool_EN.txt	STREET	PIT	5	5	PIT	n/a	0	4	[0, 0, 0]	n/a	1	1	4600	PST2	PST3	1500.0	50	230	300	PAL2	0	R1118N
580.044	2.412	1704875	REC_START	n/a	n/a	n/a	n/a	5	-999	n/a	n/a	0	4	[0, 0, 0]	n/a	1	1	4600	PST2	PST3	1500.0	50	230	300	PAL2	0	R1118N
582.456	2.604	1707287	REC_EVENT	2.412	n/a	STREET	PIT	5	5	PIT	<>	0	4	[0, 0, 0]	n/a	1	1	4600	PST2	PST3	1500.0	50	230	300	PAL2	0	R1118N
585.06	0.017	1709891	REC_END	n/a	n/a	n/a	n/a	5	-999	n/a	n/a	-999	4	[0, 0, 0]	n/a	0	1	0	n/a	n/a	0.0	0	0	0	PAL2	0	R1118N
585.077	0.25	1709908	TEST_ORIENT	n/a	n/a	STRING	FLEA	4	6	FLEA	STRING	1	4	[0, 0, 0]	n/a	0	1	0	n/a	n/a	0.0	0	0	0	PAL2	0	R1118N
585.877	4.0	1710708	TEST_PROBE	n/a	wordpools/wordpool_EN.txt	STRING	FLEA	4	6	FLEA	STRING	1	4	[0, 0, 0]	n/a	0	1	0	n/a	n/a	0.0	0	0	0	PAL2	0	R1118N
585.878	2.0	1710709	REC_START	n/a	n/a	n/a	n/a	4	-999	n/a	STRING	1	4	[0, 0, 0]	n/a	0	1	0	n/a	n/a	0.0	0	0	0	PAL2	0	R1118N
587.878	3.007	1712709	REC_EVENT	2.0	n/a	STRING	FLEA	4	6	FLEA	STRING	1	4	[0, 0, 0]	n/a	0	1	0	n/a	n/a	0.0	0	0	0	PAL2	0	R1118N
590.885	0.026	1715716	REC_END	n/a	n/a	n/a	n/a	4	-999	n/a	n/a	-999	4	[0, 0, 0]	n/a	0	1	0	n/a	n/a	0.0	0	0	0	PAL2	0	R1118N
590.911	9.581	1715742	FEEDBACK_SHOW_ALL_PAIRS	n/a	n/a	n/a	n/a	4	-999	n/a	n/a	-999	4	[0, 0, 0]	n/a	0	1	0	n/a	n/a	0.0	0	0	0	PAL2	0	R1118N
600.492	10.44	1725322	ENCODING_START	n/a	n/a	n/a	n/a	0	-999	n/a	n/a	-999	5	[0, 0, 0]	n/a	0	1	0	n/a	n/a	0.0	0	0	0	PAL2	0	R1118N
610.932	0.25	1735762	STUDY_ORIENT	n/a	n/a	FLAME	LEG	1	3	FLAME	TIRE	0	5	[0, 0, 0]	n/a	0	1	0	n/a	n/a	0.0	0	0	0	PAL2	0	R1118N
611.965	4.0	1736795	STUDY_PAIR	n/a	wordpools/wordpool_EN.txt	FLAME	LEG	1	3	FLAME	TIRE	0	5	[0, 0, 0]	n/a	0	1	0	n/a	n/a	0.0	0	0	0	PAL2	0	R1118N
616.999	0.25	1741829	STUDY_ORIENT	n/a	n/a	MILK	HAT	2	6	HAT	MILK	1	5	[0, 0, 0]	n/a	0	1	0	n/a	n/a	0.0	0	0	0	PAL2	0	R1118N
617.688	4.6	1742518	STIM_ON	n/a	n/a	MILK	HAT	2	6	HAT	MILK	1	5	[0, 0, 0]	n/a	1	1	4600	PST2	PST3	1500.0	50	230	300	PAL2	0	R1118N
617.899	4.0	1742729	STUDY_PAIR	n/a	wordpools/wordpool_EN.txt	MILK	HAT	2	6	HAT	MILK	1	5	[0, 0, 0]	n/a	1	1	4600	PST2	PST3	1500.0	50	230	300	PAL2	0	R1118N
622.917	0.25	1747747	STUDY_ORIENT	n/a	n/a	ELF	BOWL	3	1	ELF	EEL	0	5	[0, 0, 0]	n/a	0	1	0	n/a	n/a	0.0	0	0	0	PAL2	0	R1118N
623.767	4.0	1748597	STUDY_PAIR	n/a	wordpools/wordpool_EN.txt	ELF	BOWL	3	1	ELF	EEL	0	5	[0, 0, 0]	n/a	0	1	0	n/a	n/a	0.0	0	0	0	PAL2	0	R1118N
628.801	0.25	1753630	STUDY_ORIENT	n/a	n/a	CHALK	ROPE	4	2	ROPE	CHALK	1	5	[0, 0, 0]	n/a	0	1	0	n/a	n/a	0.0	0	0	0	PAL2	0	R1118N
629.474	4.6	1754303	STIM_ON	n/a	n/a	CHALK	ROPE	4	2	ROPE	CHALK	1	5	[0, 0, 0]	n/a	1	1	4600	PST2	PST3	1500.0	50	230	300	PAL2	0	R1118N
629.685	4.0	1754514	STUDY_PAIR	n/a	wordpools/wordpool_EN.txt	CHALK	ROPE	4	2	ROPE	CHALK	1	5	[0, 0, 0]	n/a	1	1	4600	PST2	PST3	1500.0	50	230	300	PAL2	0	R1118N
634.719	0.25	1759548	STUDY_ORIENT	n/a	n/a	WALL	EEL	5	5	EEL	WALL	1	5	[0, 0, 0]	n/a	0	1	0	n/a	n/a	0.0	0	0	0	PAL2	0	R1118N
635.636	4.0	1760465	STUDY_PAIR	n/a	wordpools/wordpool_EN.txt	WALL	EEL	5	5	EEL	WALL	1	5	[0, 0, 0]	n/a	0	1	0	n/a	n/a	0.0	0	0	0	PAL2	0	R1118N
640.67	0.25	1765499	STUDY_ORIENT	n/a	n/a	BENCH	CLAY	6	4	BENCH	MUG	0	5	[0, 0, 0]	n/a	0	1	0	n/a	n/a	0.0	0	0	0	PAL2	0	R1118N
641.324	4.6	1766153	STIM_ON	n/a	n/a	BENCH	CLAY	6	4	BENCH	MUG	0	5	[0, 0, 0]	n/a	1	1	4600	PST2	PST3	1500.0	50	230	300	PAL2	0	R1118N
641.537	4.0	1766366	STUDY_PAIR	n/a	wordpools/wordpool_EN.txt	BENCH	CLAY	6	4	BENCH	MUG	0	5	[0, 0, 0]	n/a	1	1	4600	PST2	PST3	1500.0	50	230	300	PAL2	0	R1118N
645.554	1.0	1770383	START	n/a	n/a	n/a	n/a	-999	-999	n/a	n/a	-999	5	[-999, -999, -999]	n/a	0	1	0	n/a	n/a	0.0	0	0	0	PAL2	0	R1118N
646.554	0.017	1771383	MATH_START	n/a	n/a	n/a	n/a	-999	-999	n/a	n/a	-999	5	[0, 0, 0]	n/a	0	1	0	n/a	n/a	0.0	0	0	0	PAL2	0	R1118N
646.571	8.635	1771400	PROB	8.608	n/a	n/a	n/a	-999	-999	n/a	n/a	-999	5	[5, 4, 3]	12	0	1	0	n/a	n/a	0.0	0	0	0	PAL2	0	R1118N
655.206	5.584	1780034	PROB	5.565	n/a	n/a	n/a	-999	-999	n/a	n/a	-999	5	[9, 2, 7]	18	0	1	0	n/a	n/a	0.0	0	0	0	PAL2	0	R1118N
660.79	3.067	1785618	PROB	3.045	n/a	n/a	n/a	-999	-999	n/a	n/a	-999	5	[2, 7, 2]	11	0	1	0	n/a	n/a	0.0	0	0	0	PAL2	0	R1118N
663.857	2.746	1788685	PROB	2.746	n/a	n/a	n/a	-999	-999	n/a	n/a	-999	5	[2, 5, 5]	12	0	1	0	n/a	n/a	0.0	0	0	0	PAL2	0	R1118N
666.603	0.005	1791431	STOP	n/a	n/a	n/a	n/a	-999	-999	n/a	n/a	-999	5	[-999, -999, -999]	n/a	0	1	0	n/a	n/a	0.0	0	0	0	PAL2	0	R1118N
666.608	0.0	1791436	MATH_END	n/a	n/a	n/a	n/a	-999	-999	n/a	n/a	-999	5	[0, 0, 0]	n/a	0	1	0	n/a	n/a	0.0	0	0	0	PAL2	0	R1118N
666.608	0.016	1791436	TEST_START	n/a	n/a	n/a	n/a	-999	-999	n/a	n/a	-999	5	[0, 0, 0]	n/a	0	1	0	n/a	n/a	0.0	0	0	0	PAL2	0	R1118N
666.624	0.25	1791452	TEST_ORIENT	n/a	n/a	ELF	BOWL	3	1	ELF	EEL	0	5	[0, 0, 0]	n/a	0	1	0	n/a	n/a	0.0	0	0	0	PAL2	0	R1118N
667.624	4.0	1792452	TEST_PROBE	n/a	wordpools/wordpool_EN.txt	ELF	BOWL	3	1	ELF	EEL	0	5	[0, 0, 0]	n/a	0	1	0	n/a	n/a	0.0	0	0	0	PAL2	0	R1118N
667.625	2.161	1792453	REC_START	n/a	n/a	n/a	n/a	3	-999	n/a	EEL	0	5	[0, 0, 0]	n/a	0	1	0	n/a	n/a	0.0	0	0	0	PAL2	0	R1118N
669.786	2.839	1794614	REC_EVENT	2.161	n/a	ELF	BOWL	3	1	ELF	EEL	0	5	[0, 0, 0]	n/a	0	1	0	n/a	n/a	0.0	0	0	0	PAL2	0	R1118N
672.625	0.017	1797453	REC_END	n/a	n/a	n/a	n/a	3	-999	n/a	n/a	-999	5	[0, 0, 0]	n/a	0	1	0	n/a	n/a	0.0	0	0	0	PAL2	0	R1118N
672.642	0.25	1797470	TEST_ORIENT	n/a	n/a	CHALK	ROPE	4	2	ROPE	CHALK	1	5	[0, 0, 0]	n/a	0	1	0	n/a	n/a	0.0	0	0	0	PAL2	0	R1118N
673.493	4.0	1798321	TEST_PROBE	n/a	wordpools/wordpool_EN.txt	CHALK	ROPE	4	2	ROPE	CHALK	1	5	[0, 0, 0]	n/a	0	1	0	n/a	n/a	0.0	0	0	0	PAL2	0	R1118N
673.493	2.013	1798321	REC_START	n/a	n/a	n/a	n/a	4	-999	n/a	CHALK	1	5	[0, 0, 0]	n/a	0	1	0	n/a	n/a	0.0	0	0	0	PAL2	0	R1118N
675.506	3.004	1800334	REC_EVENT	2.013	n/a	CHALK	ROPE	4	2	ROPE	CHALK	1	5	[0, 0, 0]	n/a	0	1	0	n/a	n/a	0.0	0	0	0	PAL2	0	R1118N
678.51	0.016	1803338	REC_END	n/a	n/a	n/a	n/a	4	-999	n/a	n/a	-999	5	[0, 0, 0]	n/a	0	1	0	n/a	n/a	0.0	0	0	0	PAL2	0	R1118N
678.526	0.25	1803354	TEST_ORIENT	n/a	n/a	FLAME	LEG	1	3	FLAME	TIRE	0	5	[0, 0, 0]	n/a	0	1	0	n/a	n/a	0.0	0	0	0	PAL2	0	R1118N
679.393	0.0	1804221	REC_START	n/a	n/a	n/a	n/a	1	-999	n/a	TIRE	0	5	[0, 0, 0]	n/a	0	1	0	n/a	n/a	0.0	0	0	0	PAL2	0	R1118N
679.393	4.0	1804221	TEST_PROBE	n/a	wordpools/wordpool_EN.txt	FLAME	LEG	1	3	FLAME	TIRE	0	5	[0, 0, 0]	n/a	0	1	0	n/a	n/a	0.0	0	0	0	PAL2	0	R1118N
681.766	2.644	1806593	REC_EVENT	2.373	n/a	FLAME	LEG	1	3	FLAME	TIRE	0	5	[0, 0, 0]	n/a	0	1	0	n/a	n/a	0.0	0	0	0	PAL2	0	R1118N
684.41	0.018	1809237	REC_END	n/a	n/a	n/a	n/a	1	-999	n/a	n/a	-999	5	[0, 0, 0]	n/a	0	1	0	n/a	n/a	0.0	0	0	0	PAL2	0	R1118N
684.428	0.25	1809255	TEST_ORIENT	n/a	n/a	BENCH	CLAY	6	4	BENCH	MUG	0	5	[0, 0, 0]	n/a	0	1	0	n/a	n/a	0.0	0	0	0	PAL2	0	R1118N
685.411	4.0	1810238	TEST_PROBE	n/a	wordpools/wordpool_EN.txt	BENCH	CLAY	6	4	BENCH	MUG	0	5	[0, 0, 0]	n/a	0	1	0	n/a	n/a	0.0	0	0	0	PAL2	0	R1118N
685.411	3.991	1810238	REC_START	n/a	n/a	n/a	n/a	6	-999	n/a	MUG	0	5	[0, 0, 0]	n/a	0	1	0	n/a	n/a	0.0	0	0	0	PAL2	0	R1118N
689.402	1.035	1814229	REC_EVENT	3.991	n/a	BENCH	CLAY	6	4	BENCH	MUG	0	5	[0, 0, 0]	n/a	0	1	0	n/a	n/a	0.0	0	0	0	PAL2	0	R1118N
690.437	0.009	1815264	REC_END	n/a	n/a	n/a	n/a	6	-999	n/a	n/a	-999	5	[0, 0, 0]	n/a	0	1	0	n/a	n/a	0.0	0	0	0	PAL2	0	R1118N
690.446	0.25	1815273	TEST_ORIENT	n/a	n/a	WALL	EEL	5	5	EEL	WALL	1	5	[0, 0, 0]	n/a	0	1	0	n/a	n/a	0.0	0	0	0	PAL2	0	R1118N
691.378	4.0	1816205	TEST_PROBE	n/a	wordpools/wordpool_EN.txt	WALL	EEL	5	5	EEL	WALL	1	5	[0, 0, 0]	n/a	0	1	0	n/a	n/a	0.0	0	0	0	PAL2	0	R1118N
691.379	2.196	1816206	REC_START	n/a	n/a	n/a	n/a	5	-999	n/a	WALL	1	5	[0, 0, 0]	n/a	0	1	0	n/a	n/a	0.0	0	0	0	PAL2	0	R1118N
693.575	2.811	1818402	REC_EVENT	2.196	n/a	WALL	EEL	5	5	EEL	WALL	1	5	[0, 0, 0]	n/a	0	1	0	n/a	n/a	0.0	0	0	0	PAL2	0	R1118N
696.386	0.01	1821213	REC_END	n/a	n/a	n/a	n/a	5	-999	n/a	n/a	-999	5	[0, 0, 0]	n/a	0	1	0	n/a	n/a	0.0	0	0	0	PAL2	0	R1118N
696.396	0.25	1821223	TEST_ORIENT	n/a	n/a	MILK	HAT	2	6	HAT	MILK	1	5	[0, 0, 0]	n/a	0	1	0	n/a	n/a	0.0	0	0	0	PAL2	0	R1118N
697.263	4.0	1822090	TEST_PROBE	n/a	wordpools/wordpool_EN.txt	MILK	HAT	2	6	HAT	MILK	1	5	[0, 0, 0]	n/a	0	1	0	n/a	n/a	0.0	0	0	0	PAL2	0	R1118N
697.263	1.619	1822090	REC_START	n/a	n/a	n/a	n/a	2	-999	n/a	MILK	1	5	[0, 0, 0]	n/a	0	1	0	n/a	n/a	0.0	0	0	0	PAL2	0	R1118N
698.882	3.398	1823709	REC_EVENT	1.619	n/a	MILK	HAT	2	6	HAT	MILK	1	5	[0, 0, 0]	n/a	0	1	0	n/a	n/a	0.0	0	0	0	PAL2	0	R1118N
702.28	0.017	1827107	REC_END	n/a	n/a	n/a	n/a	2	-999	n/a	n/a	-999	5	[0, 0, 0]	n/a	0	1	0	n/a	n/a	0.0	0	0	0	PAL2	0	R1118N
702.297	9.554	1827124	FEEDBACK_SHOW_ALL_PAIRS	n/a	n/a	n/a	n/a	2	-999	n/a	n/a	-999	5	[0, 0, 0]	n/a	0	1	0	n/a	n/a	0.0	0	0	0	PAL2	0	R1118N
711.851	10.449	1836677	ENCODING_START	n/a	n/a	n/a	n/a	0	-999	n/a	n/a	-999	6	[0, 0, 0]	n/a	0	1	0	n/a	n/a	0.0	0	0	0	PAL2	0	R1118N
722.3	0.25	1847126	STUDY_ORIENT	n/a	n/a	SHOE	RAT	1	3	SHOE	SHINE	0	6	[0, 0, 0]	n/a	0	1	0	n/a	n/a	0.0	0	0	0	PAL2	0	R1118N
722.872	4.6	1847698	STIM_ON	n/a	n/a	SHOE	RAT	1	3	SHOE	SHINE	0	6	[0, 0, 0]	n/a	1	1	4600	PST2	PST3	1500.0	50	230	300	PAL2	0	R1118N
723.084	4.0	1847910	STUDY_PAIR	n/a	wordpools/wordpool_EN.txt	SHOE	RAT	1	3	SHOE	SHINE	0	6	[0, 0, 0]	n/a	1	1	4600	PST2	PST3	1500.0	50	230	300	PAL2	0	R1118N
728.118	0.25	1852944	STUDY_ORIENT	n/a	n/a	BOAT	ARM	2	4	BOAT	OAR	0	6	[0, 0, 0]	n/a	0	1	0	n/a	n/a	0.0	0	0	0	PAL2	0	R1118N
728.918	4.0	1853744	STUDY_PAIR	n/a	wordpools/wordpool_EN.txt	BOAT	ARM	2	4	BOAT	OAR	0	6	[0, 0, 0]	n/a	0	1	0	n/a	n/a	0.0	0	0	0	PAL2	0	R1118N
733.952	0.25	1858778	STUDY_ORIENT	n/a	n/a	CUP	KITE	3	1	CUP	MOTH	0	6	[0, 0, 0]	n/a	0	1	0	n/a	n/a	0.0	0	0	0	PAL2	0	R1118N
734.694	4.6	1859520	STIM_ON	n/a	n/a	CUP	KITE	3	1	CUP	MOTH	0	6	[0, 0, 0]	n/a	1	1	4600	PST2	PST3	1500.0	50	230	300	PAL2	0	R1118N
734.902	4.0	1859727	STUDY_PAIR	n/a	wordpools/wordpool_EN.txt	CUP	KITE	3	1	CUP	MOTH	0	6	[0, 0, 0]	n/a	1	1	4600	PST2	PST3	1500.0	50	230	300	PAL2	0	R1118N
739.92	0.25	1864745	STUDY_ORIENT	n/a	n/a	GUARD	CLOTH	4	2	GUARD	RAIL	0	6	[0, 0, 0]	n/a	0	1	0	n/a	n/a	0.0	0	0	0	PAL2	0	R1118N
740.737	4.0	1865562	STUDY_PAIR	n/a	wordpools/wordpool_EN.txt	GUARD	CLOTH	4	2	GUARD	RAIL	0	6	[0, 0, 0]	n/a	0	1	0	n/a	n/a	0.0	0	0	0	PAL2	0	R1118N
745.771	0.25	1870596	STUDY_ORIENT	n/a	n/a	MOTH	SHELL	5	5	SHELL	MOTH	1	6	[0, 0, 0]	n/a	0	1	0	n/a	n/a	0.0	0	0	0	PAL2	0	R1118N
746.401	4.6	1871226	STIM_ON	n/a	n/a	MOTH	SHELL	5	5	SHELL	MOTH	1	6	[0, 0, 0]	n/a	1	1	4600	PST2	PST3	1500.0	50	230	300	PAL2	0	R1118N
746.604	4.0	1871429	STUDY_PAIR	n/a	wordpools/wordpool_EN.txt	MOTH	SHELL	5	5	SHELL	MOTH	1	6	[0, 0, 0]	n/a	1	1	4600	PST2	PST3	1500.0	50	230	300	PAL2	0	R1118N
751.622	0.25	1876447	STUDY_ORIENT	n/a	n/a	OAR	BAND	6	6	OAR	SEA	0	6	[0, 0, 0]	n/a	0	1	0	n/a	n/a	0.0	0	0	0	PAL2	0	R1118N
752.49	4.0	1877315	STUDY_PAIR	n/a	wordpools/wordpool_EN.txt	OAR	BAND	6	6	OAR	SEA	0	6	[0, 0, 0]	n/a	0	1	0	n/a	n/a	0.0	0	0	0	PAL2	0	R1118N
756.507	1.0	1881332	START	n/a	n/a	n/a	n/a	-999	-999	n/a	n/a	-999	6	[-999, -999, -999]	n/a	0	1	0	n/a	n/a	0.0	0	0	0	PAL2	0	R1118N
757.507	0.016	1882332	MATH_START	n/a	n/a	n/a	n/a	-999	-999	n/a	n/a	-999	6	[0, 0, 0]	n/a	0	1	0	n/a	n/a	0.0	0	0	0	PAL2	0	R1118N
757.523	7.835	1882348	PROB	7.816	n/a	n/a	n/a	-999	-999	n/a	n/a	-999	6	[3, 3, 9]	15	0	1	0	n/a	n/a	0.0	0	0	0	PAL2	0	R1118N
765.358	7.085	1890182	PROB	7.053	n/a	n/a	n/a	-999	-999	n/a	n/a	-999	6	[8, 1, 3]	21	0	1	0	n/a	n/a	0.0	0	0	0	PAL2	0	R1118N
772.443	6.704	1897267	PROB	6.704	n/a	n/a	n/a	-999	-999	n/a	n/a	-999	6	[5, 9, 8]	22	0	1	0	n/a	n/a	0.0	0	0	0	PAL2	0	R1118N
779.147	0.013	1903971	STOP	n/a	n/a	n/a	n/a	-999	-999	n/a	n/a	-999	6	[-999, -999, -999]	n/a	0	1	0	n/a	n/a	0.0	0	0	0	PAL2	0	R1118N
779.16	0.0	1903984	MATH_END	n/a	n/a	n/a	n/a	-999	-999	n/a	n/a	-999	6	[0, 0, 0]	n/a	0	1	0	n/a	n/a	0.0	0	0	0	PAL2	0	R1118N
779.16	0.017	1903984	TEST_START	n/a	n/a	n/a	n/a	-999	-999	n/a	n/a	-999	6	[0, 0, 0]	n/a	0	1	0	n/a	n/a	0.0	0	0	0	PAL2	0	R1118N
779.177	0.25	1904001	TEST_ORIENT	n/a	n/a	CUP	KITE	3	1	CUP	MOTH	0	6	[0, 0, 0]	n/a	0	1	0	n/a	n/a	0.0	0	0	0	PAL2	0	R1118N
780.06	4.0	1904884	TEST_PROBE	n/a	wordpools/wordpool_EN.txt	CUP	KITE	3	1	CUP	MOTH	0	6	[0, 0, 0]	n/a	0	1	0	n/a	n/a	0.0	0	0	0	PAL2	0	R1118N
780.06	2.997	1904884	REC_START	n/a	n/a	n/a	n/a	3	-999	n/a	MOTH	0	6	[0, 0, 0]	n/a	0	1	0	n/a	n/a	0.0	0	0	0	PAL2	0	R1118N
783.057	2.02	1907881	REC_EVENT	2.997	n/a	CUP	KITE	3	1	CUP	MOTH	0	6	[0, 0, 0]	n/a	0	1	0	n/a	n/a	0.0	0	0	0	PAL2	0	R1118N
785.077	0.017	1909901	REC_END	n/a	n/a	n/a	n/a	3	-999	n/a	n/a	-999	6	[0, 0, 0]	n/a	0	1	0	n/a	n/a	0.0	0	0	0	PAL2	0	R1118N
785.094	0.25	1909918	TEST_ORIENT	n/a	n/a	GUARD	CLOTH	4	2	GUARD	RAIL	0	6	[0, 0, 0]	n/a	0	1	0	n/a	n/a	0.0	0	0	0	PAL2	0	R1118N
785.944	4.0	1910768	TEST_PROBE	n/a	wordpools/wordpool_EN.txt	GUARD	CLOTH	4	2	GUARD	RAIL	0	6	[0, 0, 0]	n/a	0	1	0	n/a	n/a	0.0	0	0	0	PAL2	0	R1118N
785.945	2.497	1910769	REC_START	n/a	n/a	n/a	n/a	4	-999	n/a	RAIL	0	6	[0, 0, 0]	n/a	0	1	0	n/a	n/a	0.0	0	0	0	PAL2	0	R1118N
788.442	2.51	1913266	REC_EVENT	2.497	n/a	GUARD	CLOTH	4	2	GUARD	RAIL	0	6	[0, 0, 0]	n/a	0	1	0	n/a	n/a	0.0	0	0	0	PAL2	0	R1118N
790.952	0.01	1915775	REC_END	n/a	n/a	n/a	n/a	4	-999	n/a	n/a	-999	6	[0, 0, 0]	n/a	0	1	0	n/a	n/a	0.0	0	0	0	PAL2	0	R1118N
790.962	0.25	1915785	TEST_ORIENT	n/a	n/a	SHOE	RAT	1	3	SHOE	SHINE	0	6	[0, 0, 0]	n/a	0	1	0	n/a	n/a	0.0	0	0	0	PAL2	0	R1118N
791.779	4.0	1916602	TEST_PROBE	n/a	wordpools/wordpool_EN.txt	SHOE	RAT	1	3	SHOE	SHINE	0	6	[0, 0, 0]	n/a	0	1	0	n/a	n/a	0.0	0	0	0	PAL2	0	R1118N
791.779	4.187	1916602	REC_START	n/a	n/a	n/a	n/a	1	-999	n/a	SHINE	0	6	[0, 0, 0]	n/a	0	1	0	n/a	n/a	0.0	0	0	0	PAL2	0	R1118N
795.966	0.83	1920789	REC_EVENT	4.187	n/a	SHOE	RAT	1	3	SHOE	SHINE	0	6	[0, 0, 0]	n/a	0	1	0	n/a	n/a	0.0	0	0	0	PAL2	0	R1118N
796.796	0.017	1921619	REC_END	n/a	n/a	n/a	n/a	1	-999	n/a	n/a	-999	6	[0, 0, 0]	n/a	0	1	0	n/a	n/a	0.0	0	0	0	PAL2	0	R1118N
796.813	0.25	1921636	TEST_ORIENT	n/a	n/a	BOAT	ARM	2	4	BOAT	OAR	0	6	[0, 0, 0]	n/a	0	1	0	n/a	n/a	0.0	0	0	0	PAL2	0	R1118N
797.746	4.0	1922569	TEST_PROBE	n/a	wordpools/wordpool_EN.txt	BOAT	ARM	2	4	BOAT	OAR	0	6	[0, 0, 0]	n/a	0	1	0	n/a	n/a	0.0	0	0	0	PAL2	0	R1118N
797.747	3.092	1922570	REC_START	n/a	n/a	n/a	n/a	2	-999	n/a	OAR	0	6	[0, 0, 0]	n/a	0	1	0	n/a	n/a	0.0	0	0	0	PAL2	0	R1118N
800.839	1.916	1925662	REC_EVENT	3.092	n/a	BOAT	ARM	2	4	BOAT	OAR	0	6	[0, 0, 0]	n/a	0	1	0	n/a	n/a	0.0	0	0	0	PAL2	0	R1118N
802.755	0.009	1927578	REC_END	n/a	n/a	n/a	n/a	2	-999	n/a	n/a	-999	6	[0, 0, 0]	n/a	0	1	0	n/a	n/a	0.0	0	0	0	PAL2	0	R1118N
802.764	0.25	1927587	TEST_ORIENT	n/a	n/a	MOTH	SHELL	5	5	SHELL	MOTH	1	6	[0, 0, 0]	n/a	0	1	0	n/a	n/a	0.0	0	0	0	PAL2	0	R1118N
803.697	4.0	1928520	TEST_PROBE	n/a	wordpools/wordpool_EN.txt	MOTH	SHELL	5	5	SHELL	MOTH	1	6	[0, 0, 0]	n/a	0	1	0	n/a	n/a	0.0	0	0	0	PAL2	0	R1118N
803.698	1.676	1928521	REC_START	n/a	n/a	n/a	n/a	5	-999	n/a	MOTH	1	6	[0, 0, 0]	n/a	0	1	0	n/a	n/a	0.0	0	0	0	PAL2	0	R1118N
805.374	3.332	1930197	REC_EVENT	1.676	n/a	MOTH	SHELL	5	5	SHELL	MOTH	1	6	[0, 0, 0]	n/a	0	1	0	n/a	n/a	0.0	0	0	0	PAL2	0	R1118N
808.706	0.009	1933529	REC_END	n/a	n/a	n/a	n/a	5	-999	n/a	n/a	-999	6	[0, 0, 0]	n/a	0	1	0	n/a	n/a	0.0	0	0	0	PAL2	0	R1118N
808.715	0.25	1933538	TEST_ORIENT	n/a	n/a	OAR	BAND	6	6	OAR	SEA	0	6	[0, 0, 0]	n/a	0	1	0	n/a	n/a	0.0	0	0	0	PAL2	0	R1118N
809.632	4.0	1934455	TEST_PROBE	n/a	wordpools/wordpool_EN.txt	OAR	BAND	6	6	OAR	SEA	0	6	[0, 0, 0]	n/a	0	1	0	n/a	n/a	0.0	0	0	0	PAL2	0	R1118N
809.632	3.496	1934455	REC_START	n/a	n/a	n/a	n/a	6	-999	n/a	SEA	0	6	[0, 0, 0]	n/a	0	1	0	n/a	n/a	0.0	0	0	0	PAL2	0	R1118N
813.128	1.521	1937951	REC_EVENT	3.496	n/a	OAR	BAND	6	6	OAR	SEA	0	6	[0, 0, 0]	n/a	0	1	0	n/a	n/a	0.0	0	0	0	PAL2	0	R1118N
814.649	0.017	1939472	REC_END	n/a	n/a	n/a	n/a	6	-999	n/a	n/a	-999	6	[0, 0, 0]	n/a	0	1	0	n/a	n/a	0.0	0	0	0	PAL2	0	R1118N
814.666	10.169	1939489	FEEDBACK_SHOW_ALL_PAIRS	n/a	n/a	n/a	n/a	6	-999	n/a	n/a	-999	6	[0, 0, 0]	n/a	0	1	0	n/a	n/a	0.0	0	0	0	PAL2	0	R1118N
824.835	10.451	1949657	ENCODING_START	n/a	n/a	n/a	n/a	0	-999	n/a	n/a	-999	7	[0, 0, 0]	n/a	0	0	0	n/a	n/a	0.0	0	0	0	PAL2	0	R1118N
835.286	0.25	1960108	STUDY_ORIENT	n/a	n/a	DUCK	HEART	1	3	DUCK	STICK	0	7	[0, 0, 0]	n/a	0	0	0	n/a	n/a	0.0	0	0	0	PAL2	0	R1118N
836.22	4.0	1961042	STUDY_PAIR	n/a	wordpools/wordpool_EN.txt	DUCK	HEART	1	3	DUCK	STICK	0	7	[0, 0, 0]	n/a	0	0	0	n/a	n/a	0.0	0	0	0	PAL2	0	R1118N
841.254	0.25	1966076	STUDY_ORIENT	n/a	n/a	MAT	LAKE	2	4	LAKE	n/a	0	7	[0, 0, 0]	n/a	0	0	0	n/a	n/a	0.0	0	0	0	PAL2	0	R1118N
842.271	4.0	1967093	STUDY_PAIR	n/a	wordpools/wordpool_EN.txt	MAT	LAKE	2	4	LAKE	n/a	0	7	[0, 0, 0]	n/a	0	0	0	n/a	n/a	0.0	0	0	0	PAL2	0	R1118N
847.305	0.25	1972126	STUDY_ORIENT	n/a	n/a	PLANT	GRASS	3	5	PLANT	FALL	0	7	[0, 0, 0]	n/a	0	0	0	n/a	n/a	0.0	0	0	0	PAL2	0	R1118N
848.305	4.0	1973126	STUDY_PAIR	n/a	wordpools/wordpool_EN.txt	PLANT	GRASS	3	5	PLANT	FALL	0	7	[0, 0, 0]	n/a	0	0	0	n/a	n/a	0.0	0	0	0	PAL2	0	R1118N
853.339	0.25	1978160	STUDY_ORIENT	n/a	n/a	LEAF	PANTS	4	2	PANTS	LEAF	1	7	[0, 0, 0]	n/a	0	0	0	n/a	n/a	0.0	0	0	0	PAL2	0	R1118N
854.339	4.0	1979160	STUDY_PAIR	n/a	wordpools/wordpool_EN.txt	LEAF	PANTS	4	2	PANTS	LEAF	1	7	[0, 0, 0]	n/a	0	0	0	n/a	n/a	0.0	0	0	0	PAL2	0	R1118N
859.357	0.25	1984178	STUDY_ORIENT	n/a	n/a	STICK	THREAD	5	1	STICK	PANTS	0	7	[0, 0, 0]	n/a	0	0	0	n/a	n/a	0.0	0	0	0	PAL2	0	R1118N
860.24	4.0	1985061	STUDY_PAIR	n/a	wordpools/wordpool_EN.txt	STICK	THREAD	5	1	STICK	PANTS	0	7	[0, 0, 0]	n/a	0	0	0	n/a	n/a	0.0	0	0	0	PAL2	0	R1118N
865.258	0.25	1990079	STUDY_ORIENT	n/a	n/a	JUDGE	CAVE	6	6	CAVE	KING	0	7	[0, 0, 0]	n/a	0	0	0	n/a	n/a	0.0	0	0	0	PAL2	0	R1118N
866.208	4.0	1991029	STUDY_PAIR	n/a	wordpools/wordpool_EN.txt	JUDGE	CAVE	6	6	CAVE	KING	0	7	[0, 0, 0]	n/a	0	0	0	n/a	n/a	0.0	0	0	0	PAL2	0	R1118N
870.226	0.999	1995047	START	n/a	n/a	n/a	n/a	-999	-999	n/a	n/a	-999	7	[-999, -999, -999]	n/a	0	0	0	n/a	n/a	0.0	0	0	0	PAL2	0	R1118N
871.225	0.017	1996046	MATH_START	n/a	n/a	n/a	n/a	-999	-999	n/a	n/a	-999	7	[0, 0, 0]	n/a	0	0	0	n/a	n/a	0.0	0	0	0	PAL2	0	R1118N
871.242	6.935	1996063	PROB	6.913	n/a	n/a	n/a	-999	-999	n/a	n/a	-999	7	[9, 8, 5]	24	0	0	0	n/a	n/a	0.0	0	0	0	PAL2	0	R1118N
878.177	5.184	2002997	PROB	5.162	n/a	n/a	n/a	-999	-999	n/a	n/a	-999	7	[5, 8, 8]	21	0	0	0	n/a	n/a	0.0	0	0	0	PAL2	0	R1118N
883.361	3.734	2008181	PROB	3.706	n/a	n/a	n/a	-999	-999	n/a	n/a	-999	7	[7, 3, 4]	14	0	0	0	n/a	n/a	0.0	0	0	0	PAL2	0	R1118N
887.095	5.988	2011915	PROB	5.988	n/a	n/a	n/a	-999	-999	n/a	n/a	-999	7	[9, 9, 6]	24	0	0	0	n/a	n/a	0.0	0	0	0	PAL2	0	R1118N
893.083	0.013	2017903	STOP	n/a	n/a	n/a	n/a	-999	-999	n/a	n/a	-999	7	[-999, -999, -999]	n/a	0	0	0	n/a	n/a	0.0	0	0	0	PAL2	0	R1118N
893.096	0.0	2017916	MATH_END	n/a	n/a	n/a	n/a	-999	-999	n/a	n/a	-999	7	[0, 0, 0]	n/a	0	0	0	n/a	n/a	0.0	0	0	0	PAL2	0	R1118N
893.096	0.016	2017916	TEST_START	n/a	n/a	n/a	n/a	-999	-999	n/a	n/a	-999	7	[0, 0, 0]	n/a	0	0	0	n/a	n/a	0.0	0	0	0	PAL2	0	R1118N
893.112	0.25	2017932	TEST_ORIENT	n/a	n/a	STICK	THREAD	5	1	STICK	PANTS	0	7	[0, 0, 0]	n/a	0	0	0	n/a	n/a	0.0	0	0	0	PAL2	0	R1118N
894.129	4.0	2018949	TEST_PROBE	n/a	wordpools/wordpool_EN.txt	STICK	THREAD	5	1	STICK	PANTS	0	7	[0, 0, 0]	n/a	0	0	0	n/a	n/a	0.0	0	0	0	PAL2	0	R1118N
894.13	3.848	2018950	REC_START	n/a	n/a	n/a	n/a	5	-999	n/a	PANTS	0	7	[0, 0, 0]	n/a	0	0	0	n/a	n/a	0.0	0	0	0	PAL2	0	R1118N
897.978	1.16	2022798	REC_EVENT	3.848	n/a	STICK	THREAD	5	1	STICK	PANTS	0	7	[0, 0, 0]	n/a	0	0	0	n/a	n/a	0.0	0	0	0	PAL2	0	R1118N
899.138	0.009	2023957	REC_END	n/a	n/a	n/a	n/a	5	-999	n/a	n/a	-999	7	[0, 0, 0]	n/a	0	0	0	n/a	n/a	0.0	0	0	0	PAL2	0	R1118N
899.147	0.25	2023966	TEST_ORIENT	n/a	n/a	LEAF	PANTS	4	2	PANTS	LEAF	1	7	[0, 0, 0]	n/a	0	0	0	n/a	n/a	0.0	0	0	0	PAL2	0	R1118N
899.964	4.0	2024783	TEST_PROBE	n/a	wordpools/wordpool_EN.txt	LEAF	PANTS	4	2	PANTS	LEAF	1	7	[0, 0, 0]	n/a	0	0	0	n/a	n/a	0.0	0	0	0	PAL2	0	R1118N
899.964	2.466	2024783	REC_START	n/a	n/a	n/a	n/a	4	-999	n/a	LEAF	1	7	[0, 0, 0]	n/a	0	0	0	n/a	n/a	0.0	0	0	0	PAL2	0	R1118N
902.43	2.551	2027249	REC_EVENT	2.466	n/a	LEAF	PANTS	4	2	PANTS	LEAF	1	7	[0, 0, 0]	n/a	0	0	0	n/a	n/a	0.0	0	0	0	PAL2	0	R1118N
904.981	0.017	2029800	REC_END	n/a	n/a	n/a	n/a	4	-999	n/a	n/a	-999	7	[0, 0, 0]	n/a	0	0	0	n/a	n/a	0.0	0	0	0	PAL2	0	R1118N
904.998	0.25	2029817	TEST_ORIENT	n/a	n/a	DUCK	HEART	1	3	DUCK	STICK	0	7	[0, 0, 0]	n/a	0	0	0	n/a	n/a	0.0	0	0	0	PAL2	0	R1118N
905.865	0.0	2030684	REC_START	n/a	n/a	n/a	n/a	1	-999	n/a	STICK	0	7	[0, 0, 0]	n/a	0	0	0	n/a	n/a	0.0	0	0	0	PAL2	0	R1118N
905.865	4.0	2030684	TEST_PROBE	n/a	wordpools/wordpool_EN.txt	DUCK	HEART	1	3	DUCK	STICK	0	7	[0, 0, 0]	n/a	0	0	0	n/a	n/a	0.0	0	0	0	PAL2	0	R1118N
908.497	2.385	2033316	REC_EVENT	2.632	n/a	DUCK	HEART	1	3	DUCK	STICK	0	7	[0, 0, 0]	n/a	0	0	0	n/a	n/a	0.0	0	0	0	PAL2	0	R1118N
910.882	0.017	2035701	REC_END	n/a	n/a	n/a	n/a	1	-999	n/a	n/a	-999	7	[0, 0, 0]	n/a	0	0	0	n/a	n/a	0.0	0	0	0	PAL2	0	R1118N
910.899	0.25	2035718	TEST_ORIENT	n/a	n/a	MAT	LAKE	2	4	LAKE	n/a	0	7	[0, 0, 0]	n/a	0	0	0	n/a	n/a	0.0	0	0	0	PAL2	0	R1118N
911.882	4.0	2036701	TEST_PROBE	n/a	wordpools/wordpool_EN.txt	MAT	LAKE	2	4	LAKE	n/a	0	7	[0, 0, 0]	n/a	0	0	0	n/a	n/a	0.0	0	0	0	PAL2	0	R1118N
911.883	4.922	2036702	REC_START	n/a	n/a	n/a	n/a	2	-999	n/a	n/a	0	7	[0, 0, 0]	n/a	0	0	0	n/a	n/a	0.0	0	0	0	PAL2	0	R1118N
916.805	0.111	2041624	REC_EVENT	4.922	n/a	MAT	LAKE	2	4	LAKE	<>	0	7	[0, 0, 0]	n/a	0	0	0	n/a	n/a	0.0	0	0	0	PAL2	0	R1118N
916.916	0.017	2041735	REC_END	n/a	n/a	n/a	n/a	2	-999	n/a	n/a	-999	7	[0, 0, 0]	n/a	0	0	0	n/a	n/a	0.0	0	0	0	PAL2	0	R1118N
916.933	0.25	2041752	TEST_ORIENT	n/a	n/a	PLANT	GRASS	3	5	PLANT	FALL	0	7	[0, 0, 0]	n/a	0	0	0	n/a	n/a	0.0	0	0	0	PAL2	0	R1118N
917.867	0.0	2042686	REC_START	n/a	n/a	n/a	n/a	3	-999	n/a	FALL	0	7	[0, 0, 0]	n/a	0	0	0	n/a	n/a	0.0	0	0	0	PAL2	0	R1118N
917.867	4.0	2042686	TEST_PROBE	n/a	wordpools/wordpool_EN.txt	PLANT	GRASS	3	5	PLANT	FALL	0	7	[0, 0, 0]	n/a	0	0	0	n/a	n/a	0.0	0	0	0	PAL2	0	R1118N
922.107	0.777	2046926	REC_EVENT	4.24	n/a	PLANT	GRASS	3	5	PLANT	FALL	0	7	[0, 0, 0]	n/a	0	0	0	n/a	n/a	0.0	0	0	0	PAL2	0	R1118N
922.884	0.017	2047703	REC_END	n/a	n/a	n/a	n/a	3	-999	n/a	n/a	-999	7	[0, 0, 0]	n/a	0	0	0	n/a	n/a	0.0	0	0	0	PAL2	0	R1118N
922.901	0.25	2047720	TEST_ORIENT	n/a	n/a	JUDGE	CAVE	6	6	CAVE	KING	0	7	[0, 0, 0]	n/a	0	0	0	n/a	n/a	0.0	0	0	0	PAL2	0	R1118N
923.834	4.0	2048653	TEST_PROBE	n/a	wordpools/wordpool_EN.txt	JUDGE	CAVE	6	6	CAVE	KING	0	7	[0, 0, 0]	n/a	0	0	0	n/a	n/a	0.0	0	0	0	PAL2	0	R1118N
923.835	3.391	2048654	REC_START	n/a	n/a	n/a	n/a	6	-999	n/a	KING	0	7	[0, 0, 0]	n/a	0	0	0	n/a	n/a	0.0	0	0	0	PAL2	0	R1118N
927.226	1.616	2052044	REC_EVENT	3.391	n/a	JUDGE	CAVE	6	6	CAVE	KING	0	7	[0, 0, 0]	n/a	0	0	0	n/a	n/a	0.0	0	0	0	PAL2	0	R1118N
928.842	0.027	2053660	REC_END	n/a	n/a	n/a	n/a	6	-999	n/a	n/a	-999	7	[0, 0, 0]	n/a	0	0	0	n/a	n/a	0.0	0	0	0	PAL2	0	R1118N
928.869	9.782	2053687	FEEDBACK_SHOW_ALL_PAIRS	n/a	n/a	n/a	n/a	6	-999	n/a	n/a	-999	7	[0, 0, 0]	n/a	0	0	0	n/a	n/a	0.0	0	0	0	PAL2	0	R1118N
938.651	10.438	2063469	ENCODING_START	n/a	n/a	n/a	n/a	0	-999	n/a	n/a	-999	8	[0, 0, 0]	n/a	0	1	0	n/a	n/a	0.0	0	0	0	PAL2	0	R1118N
949.089	0.25	2073907	STUDY_ORIENT	n/a	n/a	CORN	CAPE	1	3	CORN	CAPE	1	8	[0, 0, 0]	n/a	0	1	0	n/a	n/a	0.0	0	0	0	PAL2	0	R1118N
949.905	4.0	2074723	STUDY_PAIR	n/a	wordpools/wordpool_EN.txt	CORN	CAPE	1	3	CORN	CAPE	1	8	[0, 0, 0]	n/a	0	1	0	n/a	n/a	0.0	0	0	0	PAL2	0	R1118N
954.923	0.25	2079740	STUDY_ORIENT	n/a	n/a	SQUARE	CROW	2	2	SQUARE	CROW	1	8	[0, 0, 0]	n/a	0	1	0	n/a	n/a	0.0	0	0	0	PAL2	0	R1118N
955.726	4.6	2080543	STIM_ON	n/a	n/a	SQUARE	CROW	2	2	SQUARE	CROW	1	8	[0, 0, 0]	n/a	1	1	4600	PST2	PST3	1500.0	50	230	300	PAL2	0	R1118N
955.94	4.0	2080757	STUDY_PAIR	n/a	wordpools/wordpool_EN.txt	SQUARE	CROW	2	2	SQUARE	CROW	1	8	[0, 0, 0]	n/a	1	1	4600	PST2	PST3	1500.0	50	230	300	PAL2	0	R1118N
960.974	0.25	2085791	STUDY_ORIENT	n/a	n/a	BREAD	TOAD	3	5	TOAD	ROAD	0	8	[0, 0, 0]	n/a	0	1	0	n/a	n/a	0.0	0	0	0	PAL2	0	R1118N
961.957	4.0	2086774	STUDY_PAIR	n/a	wordpools/wordpool_EN.txt	BREAD	TOAD	3	5	TOAD	ROAD	0	8	[0, 0, 0]	n/a	0	1	0	n/a	n/a	0.0	0	0	0	PAL2	0	R1118N
966.975	0.25	2091792	STUDY_ORIENT	n/a	n/a	BOMB	HORN	4	6	HORN	CAR	0	8	[0, 0, 0]	n/a	0	1	0	n/a	n/a	0.0	0	0	0	PAL2	0	R1118N
967.685	4.6	2092502	STIM_ON	n/a	n/a	BOMB	HORN	4	6	HORN	CAR	0	8	[0, 0, 0]	n/a	1	1	4600	PST2	PST3	1500.0	50	230	300	PAL2	0	R1118N
967.892	4.0	2092709	STUDY_PAIR	n/a	wordpools/wordpool_EN.txt	BOMB	HORN	4	6	HORN	CAR	0	8	[0, 0, 0]	n/a	1	1	4600	PST2	PST3	1500.0	50	230	300	PAL2	0	R1118N
972.926	0.25	2097743	STUDY_ORIENT	n/a	n/a	SPRING	CUBE	5	1	CUBE	CAVE	0	8	[0, 0, 0]	n/a	0	1	0	n/a	n/a	0.0	0	0	0	PAL2	0	R1118N
973.759	4.0	2098576	STUDY_PAIR	n/a	wordpools/wordpool_EN.txt	SPRING	CUBE	5	1	CUBE	CAVE	0	8	[0, 0, 0]	n/a	0	1	0	n/a	n/a	0.0	0	0	0	PAL2	0	R1118N
978.777	0.25	2103594	STUDY_ORIENT	n/a	n/a	WING	HILL	6	4	HILL	EYE	0	8	[0, 0, 0]	n/a	0	1	0	n/a	n/a	0.0	0	0	0	PAL2	0	R1118N
979.508	4.6	2104325	STIM_ON	n/a	n/a	WING	HILL	6	4	HILL	EYE	0	8	[0, 0, 0]	n/a	1	1	4600	PST2	PST3	1500.0	50	230	300	PAL2	0	R1118N
979.71	4.0	2104527	STUDY_PAIR	n/a	wordpools/wordpool_EN.txt	WING	HILL	6	4	HILL	EYE	0	8	[0, 0, 0]	n/a	1	1	4600	PST2	PST3	1500.0	50	230	300	PAL2	0	R1118N
983.711	1.0	2108527	START	n/a	n/a	n/a	n/a	-999	-999	n/a	n/a	-999	8	[-999, -999, -999]	n/a	0	1	0	n/a	n/a	0.0	0	0	0	PAL2	0	R1118N
984.711	0.017	2109527	MATH_START	n/a	n/a	n/a	n/a	-999	-999	n/a	n/a	-999	8	[0, 0, 0]	n/a	0	1	0	n/a	n/a	0.0	0	0	0	PAL2	0	R1118N
984.728	4.784	2109544	PROB	4.756	n/a	n/a	n/a	-999	-999	n/a	n/a	-999	8	[4, 7, 7]	18	0	1	0	n/a	n/a	0.0	0	0	0	PAL2	0	R1118N
989.512	3.851	2114328	PROB	3.827	n/a	n/a	n/a	-999	-999	n/a	n/a	-999	8	[7, 7, 4]	18	0	1	0	n/a	n/a	0.0	0	0	0	PAL2	0	R1118N
993.363	7.268	2118179	PROB	7.24	n/a	n/a	n/a	-999	-999	n/a	n/a	-999	8	[2, 6, 5]	13	0	1	0	n/a	n/a	0.0	0	0	0	PAL2	0	R1118N
1000.631	4.276	2125447	PROB	4.276	n/a	n/a	n/a	-999	-999	n/a	n/a	-999	8	[1, 5, 3]	9	0	1	0	n/a	n/a	0.0	0	0	0	PAL2	0	R1118N
1004.907	0.008	2129723	STOP	n/a	n/a	n/a	n/a	-999	-999	n/a	n/a	-999	8	[-999, -999, -999]	n/a	0	1	0	n/a	n/a	0.0	0	0	0	PAL2	0	R1118N
1004.915	0.0	2129731	MATH_END	n/a	n/a	n/a	n/a	-999	-999	n/a	n/a	-999	8	[0, 0, 0]	n/a	0	1	0	n/a	n/a	0.0	0	0	0	PAL2	0	R1118N
1004.915	0.016	2129731	TEST_START	n/a	n/a	n/a	n/a	-999	-999	n/a	n/a	-999	8	[0, 0, 0]	n/a	0	1	0	n/a	n/a	0.0	0	0	0	PAL2	0	R1118N
1004.931	0.25	2129747	TEST_ORIENT	n/a	n/a	SPRING	CUBE	5	1	CUBE	CAVE	0	8	[0, 0, 0]	n/a	0	1	0	n/a	n/a	0.0	0	0	0	PAL2	0	R1118N
1005.881	4.0	2130697	TEST_PROBE	n/a	wordpools/wordpool_EN.txt	SPRING	CUBE	5	1	CUBE	CAVE	0	8	[0, 0, 0]	n/a	0	1	0	n/a	n/a	0.0	0	0	0	PAL2	0	R1118N
1005.882	2.654	2130698	REC_START	n/a	n/a	n/a	n/a	5	-999	n/a	CAVE	0	8	[0, 0, 0]	n/a	0	1	0	n/a	n/a	0.0	0	0	0	PAL2	0	R1118N
1008.536	2.346	2133351	REC_EVENT	2.654	n/a	SPRING	CUBE	5	1	CUBE	CAVE	0	8	[0, 0, 0]	n/a	0	1	0	n/a	n/a	0.0	0	0	0	PAL2	0	R1118N
1010.882	0.017	2135697	REC_END	n/a	n/a	n/a	n/a	5	-999	n/a	n/a	-999	8	[0, 0, 0]	n/a	0	1	0	n/a	n/a	0.0	0	0	0	PAL2	0	R1118N
1010.899	0.25	2135714	TEST_ORIENT	n/a	n/a	SQUARE	CROW	2	2	SQUARE	CROW	1	8	[0, 0, 0]	n/a	0	1	0	n/a	n/a	0.0	0	0	0	PAL2	0	R1118N
1011.833	4.0	2136648	TEST_PROBE	n/a	wordpools/wordpool_EN.txt	SQUARE	CROW	2	2	SQUARE	CROW	1	8	[0, 0, 0]	n/a	0	1	0	n/a	n/a	0.0	0	0	0	PAL2	0	R1118N
1011.833	2.718	2136648	REC_START	n/a	n/a	n/a	n/a	2	-999	n/a	CROW	1	8	[0, 0, 0]	n/a	0	1	0	n/a	n/a	0.0	0	0	0	PAL2	0	R1118N
1014.551	2.307	2139366	REC_EVENT	2.718	n/a	SQUARE	CROW	2	2	SQUARE	CROW	1	8	[0, 0, 0]	n/a	0	1	0	n/a	n/a	0.0	0	0	0	PAL2	0	R1118N
1016.858	0.009	2141673	REC_END	n/a	n/a	n/a	n/a	2	-999	n/a	n/a	-999	8	[0, 0, 0]	n/a	0	1	0	n/a	n/a	0.0	0	0	0	PAL2	0	R1118N
1016.867	0.25	2141682	TEST_ORIENT	n/a	n/a	CORN	CAPE	1	3	CORN	CAPE	1	8	[0, 0, 0]	n/a	0	1	0	n/a	n/a	0.0	0	0	0	PAL2	0	R1118N
1017.85	4.0	2142665	TEST_PROBE	n/a	wordpools/wordpool_EN.txt	CORN	CAPE	1	3	CORN	CAPE	1	8	[0, 0, 0]	n/a	0	1	0	n/a	n/a	0.0	0	0	0	PAL2	0	R1118N
1017.851	1.439	2142666	REC_START	n/a	n/a	n/a	n/a	1	-999	n/a	CAPE	1	8	[0, 0, 0]	n/a	0	1	0	n/a	n/a	0.0	0	0	0	PAL2	0	R1118N
1019.29	3.568	2144105	REC_EVENT	1.439	n/a	CORN	CAPE	1	3	CORN	CAPE	1	8	[0, 0, 0]	n/a	0	1	0	n/a	n/a	0.0	0	0	0	PAL2	0	R1118N
1022.858	0.01	2147673	REC_END	n/a	n/a	n/a	n/a	1	-999	n/a	n/a	-999	8	[0, 0, 0]	n/a	0	1	0	n/a	n/a	0.0	0	0	0	PAL2	0	R1118N
1022.868	0.25	2147683	TEST_ORIENT	n/a	n/a	WING	HILL	6	4	HILL	EYE	0	8	[0, 0, 0]	n/a	0	1	0	n/a	n/a	0.0	0	0	0	PAL2	0	R1118N
1023.685	4.0	2148500	TEST_PROBE	n/a	wordpools/wordpool_EN.txt	WING	HILL	6	4	HILL	EYE	0	8	[0, 0, 0]	n/a	0	1	0	n/a	n/a	0.0	0	0	0	PAL2	0	R1118N
1023.685	2.83	2148500	REC_START	n/a	n/a	n/a	n/a	6	-999	n/a	EYE	0	8	[0, 0, 0]	n/a	0	1	0	n/a	n/a	0.0	0	0	0	PAL2	0	R1118N
1026.515	2.187	2151330	REC_EVENT	2.83	n/a	WING	HILL	6	4	HILL	EYE	0	8	[0, 0, 0]	n/a	0	1	0	n/a	n/a	0.0	0	0	0	PAL2	0	R1118N
1028.702	0.017	2153517	REC_END	n/a	n/a	n/a	n/a	6	-999	n/a	n/a	-999	8	[0, 0, 0]	n/a	0	1	0	n/a	n/a	0.0	0	0	0	PAL2	0	R1118N
1028.719	0.25	2153534	TEST_ORIENT	n/a	n/a	BREAD	TOAD	3	5	TOAD	ROAD	0	8	[0, 0, 0]	n/a	0	1	0	n/a	n/a	0.0	0	0	0	PAL2	0	R1118N
1029.686	4.0	2154501	TEST_PROBE	n/a	wordpools/wordpool_EN.txt	BREAD	TOAD	3	5	TOAD	ROAD	0	8	[0, 0, 0]	n/a	0	1	0	n/a	n/a	0.0	0	0	0	PAL2	0	R1118N
1029.686	2.802	2154501	REC_START	n/a	n/a	n/a	n/a	3	-999	n/a	ROAD	0	8	[0, 0, 0]	n/a	0	1	0	n/a	n/a	0.0	0	0	0	PAL2	0	R1118N
1032.488	2.215	2157303	REC_EVENT	2.802	n/a	BREAD	TOAD	3	5	TOAD	ROAD	0	8	[0, 0, 0]	n/a	0	1	0	n/a	n/a	0.0	0	0	0	PAL2	0	R1118N
1034.703	0.017	2159518	REC_END	n/a	n/a	n/a	n/a	3	-999	n/a	n/a	-999	8	[0, 0, 0]	n/a	0	1	0	n/a	n/a	0.0	0	0	0	PAL2	0	R1118N
1034.72	0.25	2159535	TEST_ORIENT	n/a	n/a	BOMB	HORN	4	6	HORN	CAR	0	8	[0, 0, 0]	n/a	0	1	0	n/a	n/a	0.0	0	0	0	PAL2	0	R1118N
1035.62	4.0	2160434	TEST_PROBE	n/a	wordpools/wordpool_EN.txt	BOMB	HORN	4	6	HORN	CAR	0	8	[0, 0, 0]	n/a	0	1	0	n/a	n/a	0.0	0	0	0	PAL2	0	R1118N
1035.62	2.786	2160434	REC_START	n/a	n/a	n/a	n/a	4	-999	n/a	CAR	0	8	[0, 0, 0]	n/a	0	1	0	n/a	n/a	0.0	0	0	0	PAL2	0	R1118N
1038.406	2.231	2163220	REC_EVENT	2.786	n/a	BOMB	HORN	4	6	HORN	CAR	0	8	[0, 0, 0]	n/a	0	1	0	n/a	n/a	0.0	0	0	0	PAL2	0	R1118N
1040.637	0.034	2165451	REC_END	n/a	n/a	n/a	n/a	4	-999	n/a	n/a	-999	8	[0, 0, 0]	n/a	0	1	0	n/a	n/a	0.0	0	0	0	PAL2	0	R1118N
1040.671	9.644	2165485	FEEDBACK_SHOW_ALL_PAIRS	n/a	n/a	n/a	n/a	4	-999	n/a	n/a	-999	8	[0, 0, 0]	n/a	0	1	0	n/a	n/a	0.0	0	0	0	PAL2	0	R1118N
1050.315	10.442	2175129	ENCODING_START	n/a	n/a	n/a	n/a	0	-999	n/a	n/a	-999	9	[0, 0, 0]	n/a	0	1	0	n/a	n/a	0.0	0	0	0	PAL2	0	R1118N
1060.757	0.25	2185571	STUDY_ORIENT	n/a	n/a	CORD	FROG	1	1	FROG	n/a	0	9	[0, 0, 0]	n/a	0	1	0	n/a	n/a	0.0	0	0	0	PAL2	0	R1118N
1061.691	4.0	2186505	STUDY_PAIR	n/a	wordpools/wordpool_EN.txt	CORD	FROG	1	1	FROG	n/a	0	9	[0, 0, 0]	n/a	0	1	0	n/a	n/a	0.0	0	0	0	PAL2	0	R1118N
1066.725	0.25	2191538	STUDY_ORIENT	n/a	n/a	PEARL	SOCK	2	4	SOCK	PEARL	1	9	[0, 0, 0]	n/a	0	1	0	n/a	n/a	0.0	0	0	0	PAL2	0	R1118N
1067.442	4.6	2192255	STIM_ON	n/a	n/a	PEARL	SOCK	2	4	SOCK	PEARL	1	9	[0, 0, 0]	n/a	1	1	4600	PST2	PST3	1500.0	50	230	300	PAL2	0	R1118N
1067.659	4.0	2192472	STUDY_PAIR	n/a	wordpools/wordpool_EN.txt	PEARL	SOCK	2	4	SOCK	PEARL	1	9	[0, 0, 0]	n/a	1	1	4600	PST2	PST3	1500.0	50	230	300	PAL2	0	R1118N
1072.693	0.25	2197506	STUDY_ORIENT	n/a	n/a	GRAPE	COW	3	5	GRAPE	COW	1	9	[0, 0, 0]	n/a	0	1	0	n/a	n/a	0.0	0	0	0	PAL2	0	R1118N
1073.676	4.0	2198489	STUDY_PAIR	n/a	wordpools/wordpool_EN.txt	GRAPE	COW	3	5	GRAPE	COW	1	9	[0, 0, 0]	n/a	0	1	0	n/a	n/a	0.0	0	0	0	PAL2	0	R1118N
1078.694	0.25	2203507	STUDY_ORIENT	n/a	n/a	CAGE	ROOM	4	2	CAGE	ROOM	1	9	[0, 0, 0]	n/a	0	1	0	n/a	n/a	0.0	0	0	0	PAL2	0	R1118N
1079.511	4.6	2204324	STIM_ON	n/a	n/a	CAGE	ROOM	4	2	CAGE	ROOM	1	9	[0, 0, 0]	n/a	1	1	4600	PST2	PST3	1500.0	50	230	300	PAL2	0	R1118N
1079.727	4.0	2204540	STUDY_PAIR	n/a	wordpools/wordpool_EN.txt	CAGE	ROOM	4	2	CAGE	ROOM	1	9	[0, 0, 0]	n/a	1	1	4600	PST2	PST3	1500.0	50	230	300	PAL2	0	R1118N
1084.745	0.25	2209558	STUDY_ORIENT	n/a	n/a	DITCH	BEAR	5	3	DITCH	DARE	0	9	[0, 0, 0]	n/a	0	1	0	n/a	n/a	0.0	0	0	0	PAL2	0	R1118N
1085.762	4.0	2210575	STUDY_PAIR	n/a	wordpools/wordpool_EN.txt	DITCH	BEAR	5	3	DITCH	DARE	0	9	[0, 0, 0]	n/a	0	1	0	n/a	n/a	0.0	0	0	0	PAL2	0	R1118N
1090.796	0.25	2215608	STUDY_ORIENT	n/a	n/a	BOOK	RUG	6	6	BOOK	RUG	1	9	[0, 0, 0]	n/a	0	1	0	n/a	n/a	0.0	0	0	0	PAL2	0	R1118N
1091.471	4.6	2216283	STIM_ON	n/a	n/a	BOOK	RUG	6	6	BOOK	RUG	1	9	[0, 0, 0]	n/a	1	1	4600	PST2	PST3	1500.0	50	230	300	PAL2	0	R1118N
1091.679	4.0	2216491	STUDY_PAIR	n/a	wordpools/wordpool_EN.txt	BOOK	RUG	6	6	BOOK	RUG	1	9	[0, 0, 0]	n/a	1	1	4600	PST2	PST3	1500.0	50	230	300	PAL2	0	R1118N
1095.68	1.0	2220492	START	n/a	n/a	n/a	n/a	-999	-999	n/a	n/a	-999	9	[-999, -999, -999]	n/a	0	1	0	n/a	n/a	0.0	0	0	0	PAL2	0	R1118N
1096.68	0.017	2221492	MATH_START	n/a	n/a	n/a	n/a	-999	-999	n/a	n/a	-999	9	[0, 0, 0]	n/a	0	1	0	n/a	n/a	0.0	0	0	0	PAL2	0	R1118N
1096.697	4.802	2221509	PROB	4.779	n/a	n/a	n/a	-999	-999	n/a	n/a	-999	9	[7, 7, 4]	18	0	1	0	n/a	n/a	0.0	0	0	0	PAL2	0	R1118N
1101.499	3.399	2226311	PROB	3.368	n/a	n/a	n/a	-999	-999	n/a	n/a	-999	9	[6, 9, 3]	18	0	1	0	n/a	n/a	0.0	0	0	0	PAL2	0	R1118N
1104.898	7.068	2229710	PROB	7.041	n/a	n/a	n/a	-999	-999	n/a	n/a	-999	9	[3, 5, 4]	12	0	1	0	n/a	n/a	0.0	0	0	0	PAL2	0	R1118N
1111.966	6.013	2236778	PROB	6.013	n/a	n/a	n/a	-999	-999	n/a	n/a	-999	9	[6, 3, 8]	17	0	1	0	n/a	n/a	0.0	0	0	0	PAL2	0	R1118N
1117.979	0.004	2242790	STOP	n/a	n/a	n/a	n/a	-999	-999	n/a	n/a	-999	9	[-999, -999, -999]	n/a	0	1	0	n/a	n/a	0.0	0	0	0	PAL2	0	R1118N
1117.983	0.0	2242794	TEST_START	n/a	n/a	n/a	n/a	-999	-999	n/a	n/a	-999	9	[0, 0, 0]	n/a	0	1	0	n/a	n/a	0.0	0	0	0	PAL2	0	R1118N
1117.983	0.017	2242794	MATH_END	n/a	n/a	n/a	n/a	-999	-999	n/a	n/a	-999	9	[0, 0, 0]	n/a	0	1	0	n/a	n/a	0.0	0	0	0	PAL2	0	R1118N
1118.0	0.25	2242811	TEST_ORIENT	n/a	n/a	CORD	FROG	1	1	FROG	n/a	0	9	[0, 0, 0]	n/a	0	1	0	n/a	n/a	0.0	0	0	0	PAL2	0	R1118N
1118.801	4.0	2243612	TEST_PROBE	n/a	wordpools/wordpool_EN.txt	CORD	FROG	1	1	FROG	n/a	0	9	[0, 0, 0]	n/a	0	1	0	n/a	n/a	0.0	0	0	0	PAL2	0	R1118N
1118.801	4.899	2243612	REC_START	n/a	n/a	n/a	n/a	1	-999	n/a	n/a	0	9	[0, 0, 0]	n/a	0	1	0	n/a	n/a	0.0	0	0	0	PAL2	0	R1118N
1123.7	0.118	2248511	REC_EVENT	4.899	n/a	CORD	FROG	1	1	FROG	<>	0	9	[0, 0, 0]	n/a	0	1	0	n/a	n/a	0.0	0	0	0	PAL2	0	R1118N
1123.818	0.017	2248629	REC_END	n/a	n/a	n/a	n/a	1	-999	n/a	n/a	-999	9	[0, 0, 0]	n/a	0	1	0	n/a	n/a	0.0	0	0	0	PAL2	0	R1118N
1123.835	0.25	2248646	TEST_ORIENT	n/a	n/a	CAGE	ROOM	4	2	CAGE	ROOM	1	9	[0, 0, 0]	n/a	0	1	0	n/a	n/a	0.0	0	0	0	PAL2	0	R1118N
1124.852	0.0	2249663	REC_START	n/a	n/a	n/a	n/a	4	-999	n/a	ROOM	1	9	[0, 0, 0]	n/a	0	1	0	n/a	n/a	0.0	0	0	0	PAL2	0	R1118N
1124.852	4.0	2249663	TEST_PROBE	n/a	wordpools/wordpool_EN.txt	CAGE	ROOM	4	2	CAGE	ROOM	1	9	[0, 0, 0]	n/a	0	1	0	n/a	n/a	0.0	0	0	0	PAL2	0	R1118N
1127.289	2.58	2252100	REC_EVENT	2.437	n/a	CAGE	ROOM	4	2	CAGE	ROOM	1	9	[0, 0, 0]	n/a	0	1	0	n/a	n/a	0.0	0	0	0	PAL2	0	R1118N
1129.869	0.017	2254680	REC_END	n/a	n/a	n/a	n/a	4	-999	n/a	n/a	-999	9	[0, 0, 0]	n/a	0	1	0	n/a	n/a	0.0	0	0	0	PAL2	0	R1118N
1129.886	0.25	2254697	TEST_ORIENT	n/a	n/a	DITCH	BEAR	5	3	DITCH	DARE	0	9	[0, 0, 0]	n/a	0	1	0	n/a	n/a	0.0	0	0	0	PAL2	0	R1118N
1130.703	4.0	2255514	TEST_PROBE	n/a	wordpools/wordpool_EN.txt	DITCH	BEAR	5	3	DITCH	DARE	0	9	[0, 0, 0]	n/a	0	1	0	n/a	n/a	0.0	0	0	0	PAL2	0	R1118N
1130.703	1.572	2255514	REC_START	n/a	n/a	n/a	n/a	5	-999	n/a	DARE	0	9	[0, 0, 0]	n/a	0	1	0	n/a	n/a	0.0	0	0	0	PAL2	0	R1118N
1132.275	3.445	2257086	REC_EVENT	1.572	n/a	DITCH	BEAR	5	3	DITCH	DARE	0	9	[0, 0, 0]	n/a	0	1	0	n/a	n/a	0.0	0	0	0	PAL2	0	R1118N
1135.72	0.017	2260531	REC_END	n/a	n/a	n/a	n/a	5	-999	n/a	n/a	-999	9	[0, 0, 0]	n/a	0	1	0	n/a	n/a	0.0	0	0	0	PAL2	0	R1118N
1135.737	0.25	2260548	TEST_ORIENT	n/a	n/a	PEARL	SOCK	2	4	SOCK	PEARL	1	9	[0, 0, 0]	n/a	0	1	0	n/a	n/a	0.0	0	0	0	PAL2	0	R1118N
1136.62	4.0	2261431	TEST_PROBE	n/a	wordpools/wordpool_EN.txt	PEARL	SOCK	2	4	SOCK	PEARL	1	9	[0, 0, 0]	n/a	0	1	0	n/a	n/a	0.0	0	0	0	PAL2	0	R1118N
1136.621	1.38	2261432	REC_START	n/a	n/a	n/a	n/a	2	-999	n/a	PEARL	1	9	[0, 0, 0]	n/a	0	1	0	n/a	n/a	0.0	0	0	0	PAL2	0	R1118N
1138.001	3.627	2262812	REC_EVENT	1.38	n/a	PEARL	SOCK	2	4	SOCK	PEARL	1	9	[0, 0, 0]	n/a	0	1	0	n/a	n/a	0.0	0	0	0	PAL2	0	R1118N
1141.628	0.01	2266439	REC_END	n/a	n/a	n/a	n/a	2	-999	n/a	n/a	-999	9	[0, 0, 0]	n/a	0	1	0	n/a	n/a	0.0	0	0	0	PAL2	0	R1118N
1141.638	0.25	2266449	TEST_ORIENT	n/a	n/a	GRAPE	COW	3	5	GRAPE	COW	1	9	[0, 0, 0]	n/a	0	1	0	n/a	n/a	0.0	0	0	0	PAL2	0	R1118N
1142.456	4.0	2267267	TEST_PROBE	n/a	wordpools/wordpool_EN.txt	GRAPE	COW	3	5	GRAPE	COW	1	9	[0, 0, 0]	n/a	0	1	0	n/a	n/a	0.0	0	0	0	PAL2	0	R1118N
1142.456	2.689	2267267	REC_START	n/a	n/a	n/a	n/a	3	-999	n/a	COW	1	9	[0, 0, 0]	n/a	0	1	0	n/a	n/a	0.0	0	0	0	PAL2	0	R1118N
1145.145	2.328	2269955	REC_EVENT	2.689	n/a	GRAPE	COW	3	5	GRAPE	COW	1	9	[0, 0, 0]	n/a	0	1	0	n/a	n/a	0.0	0	0	0	PAL2	0	R1118N
1147.473	0.017	2272283	REC_END	n/a	n/a	n/a	n/a	3	-999	n/a	n/a	-999	9	[0, 0, 0]	n/a	0	1	0	n/a	n/a	0.0	0	0	0	PAL2	0	R1118N
1147.49	0.25	2272300	TEST_ORIENT	n/a	n/a	BOOK	RUG	6	6	BOOK	RUG	1	9	[0, 0, 0]	n/a	0	1	0	n/a	n/a	0.0	0	0	0	PAL2	0	R1118N
1148.322	4.0	2273132	TEST_PROBE	n/a	wordpools/wordpool_EN.txt	BOOK	RUG	6	6	BOOK	RUG	1	9	[0, 0, 0]	n/a	0	1	0	n/a	n/a	0.0	0	0	0	PAL2	0	R1118N
1148.323	3.577	2273133	REC_START	n/a	n/a	n/a	n/a	6	-999	n/a	RUG	1	9	[0, 0, 0]	n/a	0	1	0	n/a	n/a	0.0	0	0	0	PAL2	0	R1118N
1151.9	1.431	2276710	REC_EVENT	3.577	n/a	BOOK	RUG	6	6	BOOK	RUG	1	9	[0, 0, 0]	n/a	0	1	0	n/a	n/a	0.0	0	0	0	PAL2	0	R1118N
1153.331	0.025	2278141	REC_END	n/a	n/a	n/a	n/a	6	-999	n/a	n/a	-999	9	[0, 0, 0]	n/a	0	1	0	n/a	n/a	0.0	0	0	0	PAL2	0	R1118N
1153.356	9.855	2278166	FEEDBACK_SHOW_ALL_PAIRS	n/a	n/a	n/a	n/a	6	-999	n/a	n/a	-999	9	[0, 0, 0]	n/a	0	1	0	n/a	n/a	0.0	0	0	0	PAL2	0	R1118N
1163.211	10.449	2288021	ENCODING_START	n/a	n/a	n/a	n/a	0	-999	n/a	n/a	-999	10	[0, 0, 0]	n/a	0	1	0	n/a	n/a	0.0	0	0	0	PAL2	0	R1118N
1173.66	0.25	2298469	STUDY_ORIENT	n/a	n/a	STORE	SHEEP	1	5	SHEEP	STORE	1	10	[0, 0, 0]	n/a	0	1	0	n/a	n/a	0.0	0	0	0	PAL2	0	R1118N
1174.627	4.0	2299436	STUDY_PAIR	n/a	wordpools/wordpool_EN.txt	STORE	SHEEP	1	5	SHEEP	STORE	1	10	[0, 0, 0]	n/a	0	1	0	n/a	n/a	0.0	0	0	0	PAL2	0	R1118N
1179.661	0.25	2304470	STUDY_ORIENT	n/a	n/a	CHEEK	SHIRT	2	4	SHIRT	POND	0	10	[0, 0, 0]	n/a	0	1	0	n/a	n/a	0.0	0	0	0	PAL2	0	R1118N
1180.678	4.0	2305487	STUDY_PAIR	n/a	wordpools/wordpool_EN.txt	CHEEK	SHIRT	2	4	SHIRT	POND	0	10	[0, 0, 0]	n/a	0	1	0	n/a	n/a	0.0	0	0	0	PAL2	0	R1118N
1185.712	0.25	2310521	STUDY_ORIENT	n/a	n/a	PIG	SOUP	3	3	SOUP	PIG	1	10	[0, 0, 0]	n/a	0	1	0	n/a	n/a	0.0	0	0	0	PAL2	0	R1118N
1186.545	4.0	2311354	STUDY_PAIR	n/a	wordpools/wordpool_EN.txt	PIG	SOUP	3	3	SOUP	PIG	1	10	[0, 0, 0]	n/a	0	1	0	n/a	n/a	0.0	0	0	0	PAL2	0	R1118N
1191.563	0.25	2316372	STUDY_ORIENT	n/a	n/a	HAND	POND	4	2	HAND	POND	1	10	[0, 0, 0]	n/a	0	1	0	n/a	n/a	0.0	0	0	0	PAL2	0	R1118N
1192.53	4.0	2317339	STUDY_PAIR	n/a	wordpools/wordpool_EN.txt	HAND	POND	4	2	HAND	POND	1	10	[0, 0, 0]	n/a	0	1	0	n/a	n/a	0.0	0	0	0	PAL2	0	R1118N
1197.564	0.25	2322373	STUDY_ORIENT	n/a	n/a	ROOF	BEACH	5	1	BEACH	ROOF	1	10	[0, 0, 0]	n/a	0	1	0	n/a	n/a	0.0	0	0	0	PAL2	0	R1118N
1198.465	4.0	2323274	STUDY_PAIR	n/a	wordpools/wordpool_EN.txt	ROOF	BEACH	5	1	BEACH	ROOF	1	10	[0, 0, 0]	n/a	0	1	0	n/a	n/a	0.0	0	0	0	PAL2	0	R1118N
1203.499	0.25	2328307	STUDY_ORIENT	n/a	n/a	GEESE	RAKE	6	6	GEESE	RAKE	1	10	[0, 0, 0]	n/a	0	1	0	n/a	n/a	0.0	0	0	0	PAL2	0	R1118N
1204.499	4.0	2329307	STUDY_PAIR	n/a	wordpools/wordpool_EN.txt	GEESE	RAKE	6	6	GEESE	RAKE	1	10	[0, 0, 0]	n/a	0	1	0	n/a	n/a	0.0	0	0	0	PAL2	0	R1118N
1208.5	1.0	2333308	START	n/a	n/a	n/a	n/a	-999	-999	n/a	n/a	-999	10	[-999, -999, -999]	n/a	0	1	0	n/a	n/a	0.0	0	0	0	PAL2	0	R1118N
1209.5	0.016	2334308	MATH_START	n/a	n/a	n/a	n/a	-999	-999	n/a	n/a	-999	10	[0, 0, 0]	n/a	0	1	0	n/a	n/a	0.0	0	0	0	PAL2	0	R1118N
1209.516	2.234	2334324	PROB	2.207	n/a	n/a	n/a	-999	-999	n/a	n/a	-999	10	[1, 8, 1]	10	0	1	0	n/a	n/a	0.0	0	0	0	PAL2	0	R1118N
1211.75	3.517	2336558	PROB	3.493	n/a	n/a	n/a	-999	-999	n/a	n/a	-999	10	[8, 2, 9]	19	0	1	0	n/a	n/a	0.0	0	0	0	PAL2	0	R1118N
1215.267	3.551	2340075	PROB	3.528	n/a	n/a	n/a	-999	-999	n/a	n/a	-999	10	[5, 4, 9]	18	0	1	0	n/a	n/a	0.0	0	0	0	PAL2	0	R1118N
1218.818	2.733	2343626	PROB	2.705	n/a	n/a	n/a	-999	-999	n/a	n/a	-999	10	[1, 6, 6]	1	0	1	0	n/a	n/a	0.0	0	0	0	PAL2	0	R1118N
1221.551	3.451	2346359	PROB	3.428	n/a	n/a	n/a	-999	-999	n/a	n/a	-999	10	[4, 5, 5]	14	0	1	0	n/a	n/a	0.0	0	0	0	PAL2	0	R1118N
1225.002	2.817	2349810	PROB	2.785	n/a	n/a	n/a	-999	-999	n/a	n/a	-999	10	[1, 7, 6]	14	0	1	0	n/a	n/a	0.0	0	0	0	PAL2	0	R1118N
1227.819	2.952	2352626	PROB	2.952	n/a	n/a	n/a	-999	-999	n/a	n/a	-999	10	[1, 9, 4]	14	0	1	0	n/a	n/a	0.0	0	0	0	PAL2	0	R1118N
1230.771	0.015	2355578	STOP	n/a	n/a	n/a	n/a	-999	-999	n/a	n/a	-999	10	[-999, -999, -999]	n/a	0	1	0	n/a	n/a	0.0	0	0	0	PAL2	0	R1118N
1230.786	0.0	2355593	MATH_END	n/a	n/a	n/a	n/a	-999	-999	n/a	n/a	-999	10	[0, 0, 0]	n/a	0	1	0	n/a	n/a	0.0	0	0	0	PAL2	0	R1118N
1230.786	0.017	2355593	TEST_START	n/a	n/a	n/a	n/a	-999	-999	n/a	n/a	-999	10	[0, 0, 0]	n/a	0	1	0	n/a	n/a	0.0	0	0	0	PAL2	0	R1118N
1230.803	0.25	2355610	TEST_ORIENT	n/a	n/a	ROOF	BEACH	5	1	BEACH	ROOF	1	10	[0, 0, 0]	n/a	0	1	0	n/a	n/a	0.0	0	0	0	PAL2	0	R1118N
1231.836	4.0	2356643	TEST_PROBE	n/a	wordpools/wordpool_EN.txt	ROOF	BEACH	5	1	BEACH	ROOF	1	10	[0, 0, 0]	n/a	0	1	0	n/a	n/a	0.0	0	0	0	PAL2	0	R1118N
1231.837	3.649	2356644	REC_START	n/a	n/a	n/a	n/a	5	-999	n/a	ROOF	1	10	[0, 0, 0]	n/a	0	1	0	n/a	n/a	0.0	0	0	0	PAL2	0	R1118N
1235.486	1.358	2360293	REC_EVENT	3.649	n/a	ROOF	BEACH	5	1	BEACH	ROOF	1	10	[0, 0, 0]	n/a	0	1	0	n/a	n/a	0.0	0	0	0	PAL2	0	R1118N
1236.844	0.01	2361651	REC_END	n/a	n/a	n/a	n/a	5	-999	n/a	n/a	-999	10	[0, 0, 0]	n/a	0	1	0	n/a	n/a	0.0	0	0	0	PAL2	0	R1118N
1236.854	0.25	2361661	TEST_ORIENT	n/a	n/a	HAND	POND	4	2	HAND	POND	1	10	[0, 0, 0]	n/a	0	1	0	n/a	n/a	0.0	0	0	0	PAL2	0	R1118N
1237.643	4.6	2362450	STIM_ON	n/a	n/a	HAND	POND	4	2	HAND	POND	1	10	[0, 0, 0]	n/a	1	1	4600	PST2	PST3	1500.0	50	230	300	PAL2	0	R1118N
1237.854	4.0	2362661	TEST_PROBE	n/a	wordpools/wordpool_EN.txt	HAND	POND	4	2	HAND	POND	1	10	[0, 0, 0]	n/a	1	1	4600	PST2	PST3	1500.0	50	230	300	PAL2	0	R1118N
1237.855	2.37	2362662	REC_START	n/a	n/a	n/a	n/a	4	-999	n/a	POND	1	10	[0, 0, 0]	n/a	1	1	4600	PST2	PST3	1500.0	50	230	300	PAL2	0	R1118N
1240.225	2.646	2365032	REC_EVENT	2.37	n/a	HAND	POND	4	2	HAND	POND	1	10	[0, 0, 0]	n/a	1	1	4600	PST2	PST3	1500.0	50	230	300	PAL2	0	R1118N
1242.871	0.017	2367678	REC_END	n/a	n/a	n/a	n/a	4	-999	n/a	n/a	-999	10	[0, 0, 0]	n/a	0	1	0	n/a	n/a	0.0	0	0	0	PAL2	0	R1118N
1242.888	0.25	2367695	TEST_ORIENT	n/a	n/a	PIG	SOUP	3	3	SOUP	PIG	1	10	[0, 0, 0]	n/a	0	1	0	n/a	n/a	0.0	0	0	0	PAL2	0	R1118N
1243.872	4.0	2368679	TEST_PROBE	n/a	wordpools/wordpool_EN.txt	PIG	SOUP	3	3	SOUP	PIG	1	10	[0, 0, 0]	n/a	0	1	0	n/a	n/a	0.0	0	0	0	PAL2	0	R1118N
1243.872	2.051	2368679	REC_START	n/a	n/a	n/a	n/a	3	-999	n/a	PIG	1	10	[0, 0, 0]	n/a	0	1	0	n/a	n/a	0.0	0	0	0	PAL2	0	R1118N
1245.923	2.966	2370730	REC_EVENT	2.051	n/a	PIG	SOUP	3	3	SOUP	PIG	1	10	[0, 0, 0]	n/a	0	1	0	n/a	n/a	0.0	0	0	0	PAL2	0	R1118N
1248.889	0.017	2373696	REC_END	n/a	n/a	n/a	n/a	3	-999	n/a	n/a	-999	10	[0, 0, 0]	n/a	0	1	0	n/a	n/a	0.0	0	0	0	PAL2	0	R1118N
1248.906	0.25	2373713	TEST_ORIENT	n/a	n/a	CHEEK	SHIRT	2	4	SHIRT	POND	0	10	[0, 0, 0]	n/a	0	1	0	n/a	n/a	0.0	0	0	0	PAL2	0	R1118N
1249.686	4.6	2374493	STIM_ON	n/a	n/a	CHEEK	SHIRT	2	4	SHIRT	POND	0	10	[0, 0, 0]	n/a	1	1	4600	PST2	PST3	1500.0	50	230	300	PAL2	0	R1118N
1249.889	4.0	2374696	TEST_PROBE	n/a	wordpools/wordpool_EN.txt	CHEEK	SHIRT	2	4	SHIRT	POND	0	10	[0, 0, 0]	n/a	1	1	4600	PST2	PST3	1500.0	50	230	300	PAL2	0	R1118N
1249.89	2.99	2374697	REC_START	n/a	n/a	n/a	n/a	2	-999	n/a	POND	0	10	[0, 0, 0]	n/a	1	1	4600	PST2	PST3	1500.0	50	230	300	PAL2	0	R1118N
1252.88	2.01	2377687	REC_EVENT	2.99	n/a	CHEEK	SHIRT	2	4	SHIRT	POND	0	10	[0, 0, 0]	n/a	1	1	4600	PST2	PST3	1500.0	50	230	300	PAL2	0	R1118N
1254.89	0.017	2379696	REC_END	n/a	n/a	n/a	n/a	2	-999	n/a	n/a	-999	10	[0, 0, 0]	n/a	0	1	0	n/a	n/a	0.0	0	0	0	PAL2	0	R1118N
1254.907	0.25	2379713	TEST_ORIENT	n/a	n/a	STORE	SHEEP	1	5	SHEEP	STORE	1	10	[0, 0, 0]	n/a	0	1	0	n/a	n/a	0.0	0	0	0	PAL2	0	R1118N
1255.707	4.0	2380513	TEST_PROBE	n/a	wordpools/wordpool_EN.txt	STORE	SHEEP	1	5	SHEEP	STORE	1	10	[0, 0, 0]	n/a	0	1	0	n/a	n/a	0.0	0	0	0	PAL2	0	R1118N
1255.707	2.051	2380513	REC_START	n/a	n/a	n/a	n/a	1	-999	n/a	STORE	1	10	[0, 0, 0]	n/a	0	1	0	n/a	n/a	0.0	0	0	0	PAL2	0	R1118N
1257.758	2.966	2382564	REC_EVENT	2.051	n/a	STORE	SHEEP	1	5	SHEEP	STORE	1	10	[0, 0, 0]	n/a	0	1	0	n/a	n/a	0.0	0	0	0	PAL2	0	R1118N
1260.724	0.017	2385530	REC_END	n/a	n/a	n/a	n/a	1	-999	n/a	n/a	-999	10	[0, 0, 0]	n/a	0	1	0	n/a	n/a	0.0	0	0	0	PAL2	0	R1118N
1260.741	0.25	2385547	TEST_ORIENT	n/a	n/a	GEESE	RAKE	6	6	GEESE	RAKE	1	10	[0, 0, 0]	n/a	0	1	0	n/a	n/a	0.0	0	0	0	PAL2	0	R1118N
1261.537	4.6	2386343	STIM_ON	n/a	n/a	GEESE	RAKE	6	6	GEESE	RAKE	1	10	[0, 0, 0]	n/a	1	1	4600	PST2	PST3	1500.0	50	230	300	PAL2	0	R1118N
1261.741	4.0	2386547	TEST_PROBE	n/a	wordpools/wordpool_EN.txt	GEESE	RAKE	6	6	GEESE	RAKE	1	10	[0, 0, 0]	n/a	1	1	4600	PST2	PST3	1500.0	50	230	300	PAL2	0	R1118N
1261.742	1.715	2386548	REC_START	n/a	n/a	n/a	n/a	6	-999	n/a	RAKE	1	10	[0, 0, 0]	n/a	1	1	4600	PST2	PST3	1500.0	50	230	300	PAL2	0	R1118N
1263.457	3.292	2388263	REC_EVENT	1.715	n/a	GEESE	RAKE	6	6	GEESE	RAKE	1	10	[0, 0, 0]	n/a	1	1	4600	PST2	PST3	1500.0	50	230	300	PAL2	0	R1118N
1266.749	0.027	2391555	REC_END	n/a	n/a	n/a	n/a	6	-999	n/a	n/a	-999	10	[0, 0, 0]	n/a	0	1	0	n/a	n/a	0.0	0	0	0	PAL2	0	R1118N
1266.776	9.708	2391582	FEEDBACK_SHOW_ALL_PAIRS	n/a	n/a	n/a	n/a	6	-999	n/a	n/a	-999	10	[0, 0, 0]	n/a	0	1	0	n/a	n/a	0.0	0	0	0	PAL2	0	R1118N
1276.484	10.445	2401290	ENCODING_START	n/a	n/a	n/a	n/a	0	-999	n/a	n/a	-999	11	[0, 0, 0]	n/a	0	1	0	n/a	n/a	0.0	0	0	0	PAL2	0	R1118N
1286.929	0.25	2411734	STUDY_ORIENT	n/a	n/a	CONE	SNOW	1	1	CONE	SNOW	1	11	[0, 0, 0]	n/a	0	1	0	n/a	n/a	0.0	0	0	0	PAL2	0	R1118N
1287.796	4.0	2412601	STUDY_PAIR	n/a	wordpools/wordpool_EN.txt	CONE	SNOW	1	1	CONE	SNOW	1	11	[0, 0, 0]	n/a	0	1	0	n/a	n/a	0.0	0	0	0	PAL2	0	R1118N
1292.83	0.25	2417635	STUDY_ORIENT	n/a	n/a	MULE	GOLD	2	4	MULE	GOLD	1	11	[0, 0, 0]	n/a	0	1	0	n/a	n/a	0.0	0	0	0	PAL2	0	R1118N
1293.747	4.0	2418552	STUDY_PAIR	n/a	wordpools/wordpool_EN.txt	MULE	GOLD	2	4	MULE	GOLD	1	11	[0, 0, 0]	n/a	0	1	0	n/a	n/a	0.0	0	0	0	PAL2	0	R1118N
1298.781	0.25	2423586	STUDY_ORIENT	n/a	n/a	PIE	BEE	3	3	PIE	BEE	1	11	[0, 0, 0]	n/a	0	1	0	n/a	n/a	0.0	0	0	0	PAL2	0	R1118N
1299.631	4.0	2424436	STUDY_PAIR	n/a	wordpools/wordpool_EN.txt	PIE	BEE	3	3	PIE	BEE	1	11	[0, 0, 0]	n/a	0	1	0	n/a	n/a	0.0	0	0	0	PAL2	0	R1118N
1304.649	0.25	2429454	STUDY_ORIENT	n/a	n/a	SEAT	RIB	4	2	SEAT	RIB	1	11	[0, 0, 0]	n/a	0	1	0	n/a	n/a	0.0	0	0	0	PAL2	0	R1118N
1305.616	4.0	2430421	STUDY_PAIR	n/a	wordpools/wordpool_EN.txt	SEAT	RIB	4	2	SEAT	RIB	1	11	[0, 0, 0]	n/a	0	1	0	n/a	n/a	0.0	0	0	0	PAL2	0	R1118N
1310.65	0.25	2435454	STUDY_ORIENT	n/a	n/a	MOOSE	SPEAR	5	5	SPEAR	MOOSE	1	11	[0, 0, 0]	n/a	0	1	0	n/a	n/a	0.0	0	0	0	PAL2	0	R1118N
1311.667	4.0	2436471	STUDY_PAIR	n/a	wordpools/wordpool_EN.txt	MOOSE	SPEAR	5	5	SPEAR	MOOSE	1	11	[0, 0, 0]	n/a	0	1	0	n/a	n/a	0.0	0	0	0	PAL2	0	R1118N
1316.701	0.25	2441505	STUDY_ORIENT	n/a	n/a	SLIME	TRAIN	6	6	SLIME	TRAIN	1	11	[0, 0, 0]	n/a	0	1	0	n/a	n/a	0.0	0	0	0	PAL2	0	R1118N
1317.651	4.0	2442455	STUDY_PAIR	n/a	wordpools/wordpool_EN.txt	SLIME	TRAIN	6	6	SLIME	TRAIN	1	11	[0, 0, 0]	n/a	0	1	0	n/a	n/a	0.0	0	0	0	PAL2	0	R1118N
1321.669	0.999	2446473	START	n/a	n/a	n/a	n/a	-999	-999	n/a	n/a	-999	11	[-999, -999, -999]	n/a	0	1	0	n/a	n/a	0.0	0	0	0	PAL2	0	R1118N
1322.668	0.017	2447472	MATH_START	n/a	n/a	n/a	n/a	-999	-999	n/a	n/a	-999	11	[0, 0, 0]	n/a	0	1	0	n/a	n/a	0.0	0	0	0	PAL2	0	R1118N
1322.685	2.917	2447489	PROB	2.894	n/a	n/a	n/a	-999	-999	n/a	n/a	-999	11	[4, 6, 2]	12	0	1	0	n/a	n/a	0.0	0	0	0	PAL2	0	R1118N
1325.602	6.418	2450406	PROB	6.385	n/a	n/a	n/a	-999	-999	n/a	n/a	-999	11	[9, 2, 7]	18	0	1	0	n/a	n/a	0.0	0	0	0	PAL2	0	R1118N
1332.02	4.834	2456824	PROB	4.815	n/a	n/a	n/a	-999	-999	n/a	n/a	-999	11	[2, 4, 9]	19	0	1	0	n/a	n/a	0.0	0	0	0	PAL2	0	R1118N
1336.854	7.077	2461657	PROB	7.077	n/a	n/a	n/a	-999	-999	n/a	n/a	-999	11	[5, 7, 4]	16	0	1	0	n/a	n/a	0.0	0	0	0	PAL2	0	R1118N
1343.931	0.008	2468734	STOP	n/a	n/a	n/a	n/a	-999	-999	n/a	n/a	-999	11	[-999, -999, -999]	n/a	0	1	0	n/a	n/a	0.0	0	0	0	PAL2	0	R1118N
1343.939	0.0	2468742	TEST_START	n/a	n/a	n/a	n/a	-999	-999	n/a	n/a	-999	11	[0, 0, 0]	n/a	0	1	0	n/a	n/a	0.0	0	0	0	PAL2	0	R1118N
1343.939	0.016	2468742	MATH_END	n/a	n/a	n/a	n/a	-999	-999	n/a	n/a	-999	11	[0, 0, 0]	n/a	0	1	0	n/a	n/a	0.0	0	0	0	PAL2	0	R1118N
1343.955	0.25	2468758	TEST_ORIENT	n/a	n/a	CONE	SNOW	1	1	CONE	SNOW	1	11	[0, 0, 0]	n/a	0	1	0	n/a	n/a	0.0	0	0	0	PAL2	0	R1118N
1344.687	4.6	2469490	STIM_ON	n/a	n/a	CONE	SNOW	1	1	CONE	SNOW	1	11	[0, 0, 0]	n/a	1	1	4600	PST2	PST3	1500.0	50	230	300	PAL2	0	R1118N
1344.889	4.0	2469692	TEST_PROBE	n/a	wordpools/wordpool_EN.txt	CONE	SNOW	1	1	CONE	SNOW	1	11	[0, 0, 0]	n/a	1	1	4600	PST2	PST3	1500.0	50	230	300	PAL2	0	R1118N
1344.889	1.264	2469692	REC_START	n/a	n/a	n/a	n/a	1	-999	n/a	SNOW	1	11	[0, 0, 0]	n/a	1	1	4600	PST2	PST3	1500.0	50	230	300	PAL2	0	R1118N
1346.153	3.76	2470956	REC_EVENT	1.264	n/a	CONE	SNOW	1	1	CONE	SNOW	1	11	[0, 0, 0]	n/a	1	1	4600	PST2	PST3	1500.0	50	230	300	PAL2	0	R1118N
1349.913	0.01	2474716	REC_END	n/a	n/a	n/a	n/a	1	-999	n/a	n/a	-999	11	[0, 0, 0]	n/a	0	1	0	n/a	n/a	0.0	0	0	0	PAL2	0	R1118N
1349.923	0.25	2474726	TEST_ORIENT	n/a	n/a	SEAT	RIB	4	2	SEAT	RIB	1	11	[0, 0, 0]	n/a	0	1	0	n/a	n/a	0.0	0	0	0	PAL2	0	R1118N
1350.873	4.0	2475676	TEST_PROBE	n/a	wordpools/wordpool_EN.txt	SEAT	RIB	4	2	SEAT	RIB	1	11	[0, 0, 0]	n/a	0	1	0	n/a	n/a	0.0	0	0	0	PAL2	0	R1118N
1350.874	3.086	2475677	REC_START	n/a	n/a	n/a	n/a	4	-999	n/a	RIB	1	11	[0, 0, 0]	n/a	0	1	0	n/a	n/a	0.0	0	0	0	PAL2	0	R1118N
1353.96	1.921	2478763	REC_EVENT	3.086	n/a	SEAT	RIB	4	2	SEAT	RIB	1	11	[0, 0, 0]	n/a	0	1	0	n/a	n/a	0.0	0	0	0	PAL2	0	R1118N
1355.881	0.01	2480684	REC_END	n/a	n/a	n/a	n/a	4	-999	n/a	n/a	-999	11	[0, 0, 0]	n/a	0	1	0	n/a	n/a	0.0	0	0	0	PAL2	0	R1118N
1355.891	0.25	2480694	TEST_ORIENT	n/a	n/a	PIE	BEE	3	3	PIE	BEE	1	11	[0, 0, 0]	n/a	0	1	0	n/a	n/a	0.0	0	0	0	PAL2	0	R1118N
1356.629	4.6	2481432	STIM_ON	n/a	n/a	PIE	BEE	3	3	PIE	BEE	1	11	[0, 0, 0]	n/a	1	1	4600	PST2	PST3	1500.0	50	230	300	PAL2	0	R1118N
1356.841	4.0	2481644	TEST_PROBE	n/a	wordpools/wordpool_EN.txt	PIE	BEE	3	3	PIE	BEE	1	11	[0, 0, 0]	n/a	1	1	4600	PST2	PST3	1500.0	50	230	300	PAL2	0	R1118N
1356.841	2.547	2481644	REC_START	n/a	n/a	n/a	n/a	3	-999	n/a	BEE	1	11	[0, 0, 0]	n/a	1	1	4600	PST2	PST3	1500.0	50	230	300	PAL2	0	R1118N
1359.388	2.47	2484191	REC_EVENT	2.547	n/a	PIE	BEE	3	3	PIE	BEE	1	11	[0, 0, 0]	n/a	1	1	4600	PST2	PST3	1500.0	50	230	300	PAL2	0	R1118N
1361.858	0.017	2486661	REC_END	n/a	n/a	n/a	n/a	3	-999	n/a	n/a	-999	11	[0, 0, 0]	n/a	0	1	0	n/a	n/a	0.0	0	0	0	PAL2	0	R1118N
1361.875	0.25	2486678	TEST_ORIENT	n/a	n/a	MULE	GOLD	2	4	MULE	GOLD	1	11	[0, 0, 0]	n/a	0	1	0	n/a	n/a	0.0	0	0	0	PAL2	0	R1118N
1362.892	0.0	2487695	REC_START	n/a	n/a	n/a	n/a	2	-999	n/a	GOLD	1	11	[0, 0, 0]	n/a	0	1	0	n/a	n/a	0.0	0	0	0	PAL2	0	R1118N
1362.892	4.0	2487695	TEST_PROBE	n/a	wordpools/wordpool_EN.txt	MULE	GOLD	2	4	MULE	GOLD	1	11	[0, 0, 0]	n/a	0	1	0	n/a	n/a	0.0	0	0	0	PAL2	0	R1118N
1365.578	2.338	2490380	REC_EVENT	2.686	n/a	MULE	GOLD	2	4	MULE	GOLD	1	11	[0, 0, 0]	n/a	0	1	0	n/a	n/a	0.0	0	0	0	PAL2	0	R1118N
1367.916	0.01	2492718	REC_END	n/a	n/a	n/a	n/a	2	-999	n/a	n/a	-999	11	[0, 0, 0]	n/a	0	1	0	n/a	n/a	0.0	0	0	0	PAL2	0	R1118N
1367.926	0.25	2492728	TEST_ORIENT	n/a	n/a	MOOSE	SPEAR	5	5	SPEAR	MOOSE	1	11	[0, 0, 0]	n/a	0	1	0	n/a	n/a	0.0	0	0	0	PAL2	0	R1118N
1368.558	4.6	2493360	STIM_ON	n/a	n/a	MOOSE	SPEAR	5	5	SPEAR	MOOSE	1	11	[0, 0, 0]	n/a	1	1	4600	PST2	PST3	1500.0	50	230	300	PAL2	0	R1118N
1368.759	4.0	2493561	TEST_PROBE	n/a	wordpools/wordpool_EN.txt	MOOSE	SPEAR	5	5	SPEAR	MOOSE	1	11	[0, 0, 0]	n/a	1	1	4600	PST2	PST3	1500.0	50	230	300	PAL2	0	R1118N
1368.76	2.122	2493562	REC_START	n/a	n/a	n/a	n/a	5	-999	n/a	MOOSE	1	11	[0, 0, 0]	n/a	1	1	4600	PST2	PST3	1500.0	50	230	300	PAL2	0	R1118N
1370.882	2.885	2495684	REC_EVENT	2.122	n/a	MOOSE	SPEAR	5	5	SPEAR	MOOSE	1	11	[0, 0, 0]	n/a	1	1	4600	PST2	PST3	1500.0	50	230	300	PAL2	0	R1118N
1373.767	0.01	2498569	REC_END	n/a	n/a	n/a	n/a	5	-999	n/a	n/a	-999	11	[0, 0, 0]	n/a	0	1	0	n/a	n/a	0.0	0	0	0	PAL2	0	R1118N
1373.777	0.25	2498579	TEST_ORIENT	n/a	n/a	SLIME	TRAIN	6	6	SLIME	TRAIN	1	11	[0, 0, 0]	n/a	0	1	0	n/a	n/a	0.0	0	0	0	PAL2	0	R1118N
1374.677	4.0	2499479	TEST_PROBE	n/a	wordpools/wordpool_EN.txt	SLIME	TRAIN	6	6	SLIME	TRAIN	1	11	[0, 0, 0]	n/a	0	1	0	n/a	n/a	0.0	0	0	0	PAL2	0	R1118N
1374.679	1.54	2499481	REC_START	n/a	n/a	n/a	n/a	6	-999	n/a	TRAIN	1	11	[0, 0, 0]	n/a	0	1	0	n/a	n/a	0.0	0	0	0	PAL2	0	R1118N
1376.219	3.459	2501021	REC_EVENT	1.54	n/a	SLIME	TRAIN	6	6	SLIME	TRAIN	1	11	[0, 0, 0]	n/a	0	1	0	n/a	n/a	0.0	0	0	0	PAL2	0	R1118N
1379.678	0.033	2504480	REC_END	n/a	n/a	n/a	n/a	6	-999	n/a	n/a	-999	11	[0, 0, 0]	n/a	0	1	0	n/a	n/a	0.0	0	0	0	PAL2	0	R1118N
1379.711	9.948	2504513	FEEDBACK_SHOW_ALL_PAIRS	n/a	n/a	n/a	n/a	6	-999	n/a	n/a	-999	11	[0, 0, 0]	n/a	0	1	0	n/a	n/a	0.0	0	0	0	PAL2	0	R1118N
1389.659	10.439	2514461	ENCODING_START	n/a	n/a	n/a	n/a	0	-999	n/a	n/a	-999	12	[0, 0, 0]	n/a	0	1	0	n/a	n/a	0.0	0	0	0	PAL2	0	R1118N
1400.098	0.25	2524899	STUDY_ORIENT	n/a	n/a	BRICK	DRESS	1	1	DRESS	n/a	0	12	[0, 0, 0]	n/a	0	1	0	n/a	n/a	0.0	0	0	0	PAL2	0	R1118N
1401.065	4.0	2525866	STUDY_PAIR	n/a	wordpools/wordpool_EN.txt	BRICK	DRESS	1	1	DRESS	n/a	0	12	[0, 0, 0]	n/a	0	1	0	n/a	n/a	0.0	0	0	0	PAL2	0	R1118N
1406.099	0.25	2530900	STUDY_ORIENT	n/a	n/a	DOLL	CLOUD	2	2	CLOUD	DOLL	1	12	[0, 0, 0]	n/a	0	1	0	n/a	n/a	0.0	0	0	0	PAL2	0	R1118N
1406.966	4.0	2531767	STUDY_PAIR	n/a	wordpools/wordpool_EN.txt	DOLL	CLOUD	2	2	CLOUD	DOLL	1	12	[0, 0, 0]	n/a	0	1	0	n/a	n/a	0.0	0	0	0	PAL2	0	R1118N
1412.0	0.25	2536801	STUDY_ORIENT	n/a	n/a	HOUSE	COUCH	3	3	COUCH	HOUSE	1	12	[0, 0, 0]	n/a	0	1	0	n/a	n/a	0.0	0	0	0	PAL2	0	R1118N
1412.967	4.0	2537768	STUDY_PAIR	n/a	wordpools/wordpool_EN.txt	HOUSE	COUCH	3	3	COUCH	HOUSE	1	12	[0, 0, 0]	n/a	0	1	0	n/a	n/a	0.0	0	0	0	PAL2	0	R1118N
1418.001	0.25	2542801	STUDY_ORIENT	n/a	n/a	DEER	BAG	4	6	DEER	BAG	1	12	[0, 0, 0]	n/a	0	1	0	n/a	n/a	0.0	0	0	0	PAL2	0	R1118N
1418.785	4.0	2543585	STUDY_PAIR	n/a	wordpools/wordpool_EN.txt	DEER	BAG	4	6	DEER	BAG	1	12	[0, 0, 0]	n/a	0	1	0	n/a	n/a	0.0	0	0	0	PAL2	0	R1118N
1423.819	0.25	2548619	STUDY_ORIENT	n/a	n/a	DOCK	BALL	5	5	BALL	BOAT	0	12	[0, 0, 0]	n/a	0	1	0	n/a	n/a	0.0	0	0	0	PAL2	0	R1118N
1424.652	4.0	2549452	STUDY_PAIR	n/a	wordpools/wordpool_EN.txt	DOCK	BALL	5	5	BALL	BOAT	0	12	[0, 0, 0]	n/a	0	1	0	n/a	n/a	0.0	0	0	0	PAL2	0	R1118N
1429.67	0.25	2554470	STUDY_ORIENT	n/a	n/a	SHARK	SUN	6	4	SUN	n/a	0	12	[0, 0, 0]	n/a	0	1	0	n/a	n/a	0.0	0	0	0	PAL2	0	R1118N
1430.454	4.0	2555254	STUDY_PAIR	n/a	wordpools/wordpool_EN.txt	SHARK	SUN	6	4	SUN	n/a	0	12	[0, 0, 0]	n/a	0	1	0	n/a	n/a	0.0	0	0	0	PAL2	0	R1118N
1434.456	0.999	2559256	START	n/a	n/a	n/a	n/a	-999	-999	n/a	n/a	-999	12	[-999, -999, -999]	n/a	0	1	0	n/a	n/a	0.0	0	0	0	PAL2	0	R1118N
1435.455	0.017	2560255	MATH_START	n/a	n/a	n/a	n/a	-999	-999	n/a	n/a	-999	12	[0, 0, 0]	n/a	0	1	0	n/a	n/a	0.0	0	0	0	PAL2	0	R1118N
1435.472	3.466	2560272	PROB	3.443	n/a	n/a	n/a	-999	-999	n/a	n/a	-999	12	[3, 2, 3]	8	0	1	0	n/a	n/a	0.0	0	0	0	PAL2	0	R1118N
1438.938	6.301	2563738	PROB	6.281	n/a	n/a	n/a	-999	-999	n/a	n/a	-999	12	[6, 3, 8]	17	0	1	0	n/a	n/a	0.0	0	0	0	PAL2	0	R1118N
1445.239	6.585	2570038	PROB	6.556	n/a	n/a	n/a	-999	-999	n/a	n/a	-999	12	[8, 7, 4]	19	0	1	0	n/a	n/a	0.0	0	0	0	PAL2	0	R1118N
1451.824	2.691	2576623	PROB	2.691	n/a	n/a	n/a	-999	-999	n/a	n/a	-999	12	[2, 1, 6]	9	0	1	0	n/a	n/a	0.0	0	0	0	PAL2	0	R1118N
1454.515	0.009	2579314	STOP	n/a	n/a	n/a	n/a	-999	-999	n/a	n/a	-999	12	[-999, -999, -999]	n/a	0	1	0	n/a	n/a	0.0	0	0	0	PAL2	0	R1118N
1454.524	0.0	2579323	MATH_END	n/a	n/a	n/a	n/a	-999	-999	n/a	n/a	-999	12	[0, 0, 0]	n/a	0	1	0	n/a	n/a	0.0	0	0	0	PAL2	0	R1118N
1454.524	0.017	2579323	TEST_START	n/a	n/a	n/a	n/a	-999	-999	n/a	n/a	-999	12	[0, 0, 0]	n/a	0	1	0	n/a	n/a	0.0	0	0	0	PAL2	0	R1118N
1454.541	0.25	2579340	TEST_ORIENT	n/a	n/a	BRICK	DRESS	1	1	DRESS	n/a	0	12	[0, 0, 0]	n/a	0	1	0	n/a	n/a	0.0	0	0	0	PAL2	0	R1118N
1455.249	4.6	2580048	STIM_ON	n/a	n/a	BRICK	DRESS	1	1	DRESS	n/a	0	12	[0, 0, 0]	n/a	1	1	4600	PST2	PST3	1500.0	50	230	300	PAL2	0	R1118N
1455.459	4.0	2580258	TEST_PROBE	n/a	wordpools/wordpool_EN.txt	BRICK	DRESS	1	1	DRESS	n/a	0	12	[0, 0, 0]	n/a	1	1	4600	PST2	PST3	1500.0	50	230	300	PAL2	0	R1118N
1455.459	4.619	2580258	REC_START	n/a	n/a	n/a	n/a	1	-999	n/a	n/a	0	12	[0, 0, 0]	n/a	1	1	4600	PST2	PST3	1500.0	50	230	300	PAL2	0	R1118N
1460.078	0.405	2584877	REC_EVENT	4.619	n/a	BRICK	DRESS	1	1	DRESS	<>	0	12	[0, 0, 0]	n/a	0	1	0	n/a	n/a	0.0	0	0	0	PAL2	0	R1118N
1460.483	0.01	2585282	REC_END	n/a	n/a	n/a	n/a	1	-999	n/a	n/a	-999	12	[0, 0, 0]	n/a	0	1	0	n/a	n/a	0.0	0	0	0	PAL2	0	R1118N
1460.493	0.25	2585292	TEST_ORIENT	n/a	n/a	DOLL	CLOUD	2	2	CLOUD	DOLL	1	12	[0, 0, 0]	n/a	0	1	0	n/a	n/a	0.0	0	0	0	PAL2	0	R1118N
1461.493	0.0	2586292	REC_START	n/a	n/a	n/a	n/a	2	-999	n/a	DOLL	1	12	[0, 0, 0]	n/a	0	1	0	n/a	n/a	0.0	0	0	0	PAL2	0	R1118N
1461.493	4.0	2586292	TEST_PROBE	n/a	wordpools/wordpool_EN.txt	DOLL	CLOUD	2	2	CLOUD	DOLL	1	12	[0, 0, 0]	n/a	0	1	0	n/a	n/a	0.0	0	0	0	PAL2	0	R1118N
1463.9	2.61	2588699	REC_EVENT	2.407	n/a	DOLL	CLOUD	2	2	CLOUD	DOLL	1	12	[0, 0, 0]	n/a	0	1	0	n/a	n/a	0.0	0	0	0	PAL2	0	R1118N
1466.51	0.016	2591309	REC_END	n/a	n/a	n/a	n/a	2	-999	n/a	n/a	-999	12	[0, 0, 0]	n/a	0	1	0	n/a	n/a	0.0	0	0	0	PAL2	0	R1118N
1466.526	0.25	2591325	TEST_ORIENT	n/a	n/a	HOUSE	COUCH	3	3	COUCH	HOUSE	1	12	[0, 0, 0]	n/a	0	1	0	n/a	n/a	0.0	0	0	0	PAL2	0	R1118N
1467.145	4.6	2591944	STIM_ON	n/a	n/a	HOUSE	COUCH	3	3	COUCH	HOUSE	1	12	[0, 0, 0]	n/a	1	1	4600	PST2	PST3	1500.0	50	230	300	PAL2	0	R1118N
1467.359	4.0	2592158	TEST_PROBE	n/a	wordpools/wordpool_EN.txt	HOUSE	COUCH	3	3	COUCH	HOUSE	1	12	[0, 0, 0]	n/a	1	1	4600	PST2	PST3	1500.0	50	230	300	PAL2	0	R1118N
1467.36	2.129	2592159	REC_START	n/a	n/a	n/a	n/a	3	-999	n/a	HOUSE	1	12	[0, 0, 0]	n/a	1	1	4600	PST2	PST3	1500.0	50	230	300	PAL2	0	R1118N
1469.489	2.871	2594288	REC_EVENT	2.129	n/a	HOUSE	COUCH	3	3	COUCH	HOUSE	1	12	[0, 0, 0]	n/a	1	1	4600	PST2	PST3	1500.0	50	230	300	PAL2	0	R1118N
1472.36	0.017	2597158	REC_END	n/a	n/a	n/a	n/a	3	-999	n/a	n/a	-999	12	[0, 0, 0]	n/a	0	1	0	n/a	n/a	0.0	0	0	0	PAL2	0	R1118N
1472.377	0.25	2597175	TEST_ORIENT	n/a	n/a	SHARK	SUN	6	4	SUN	n/a	0	12	[0, 0, 0]	n/a	0	1	0	n/a	n/a	0.0	0	0	0	PAL2	0	R1118N
1473.244	4.0	2598042	TEST_PROBE	n/a	wordpools/wordpool_EN.txt	SHARK	SUN	6	4	SUN	n/a	0	12	[0, 0, 0]	n/a	0	1	0	n/a	n/a	0.0	0	0	0	PAL2	0	R1118N
1473.244	4.17	2598042	REC_START	n/a	n/a	n/a	n/a	6	-999	n/a	n/a	0	12	[0, 0, 0]	n/a	0	1	0	n/a	n/a	0.0	0	0	0	PAL2	0	R1118N
1477.414	0.855	2602212	REC_EVENT	4.17	n/a	SHARK	SUN	6	4	SUN	<>	0	12	[0, 0, 0]	n/a	0	1	0	n/a	n/a	0.0	0	0	0	PAL2	0	R1118N
1478.269	0.009	2603067	REC_END	n/a	n/a	n/a	n/a	6	-999	n/a	n/a	-999	12	[0, 0, 0]	n/a	0	1	0	n/a	n/a	0.0	0	0	0	PAL2	0	R1118N
1478.278	0.25	2603076	TEST_ORIENT	n/a	n/a	DOCK	BALL	5	5	BALL	BOAT	0	12	[0, 0, 0]	n/a	0	1	0	n/a	n/a	0.0	0	0	0	PAL2	0	R1118N
1478.993	4.6	2603791	STIM_ON	n/a	n/a	DOCK	BALL	5	5	BALL	BOAT	0	12	[0, 0, 0]	n/a	1	1	4600	PST2	PST3	1500.0	50	230	300	PAL2	0	R1118N
1479.195	4.0	2603993	TEST_PROBE	n/a	wordpools/wordpool_EN.txt	DOCK	BALL	5	5	BALL	BOAT	0	12	[0, 0, 0]	n/a	1	1	4600	PST2	PST3	1500.0	50	230	300	PAL2	0	R1118N
1479.195	4.541	2603993	REC_START	n/a	n/a	n/a	n/a	5	-999	n/a	BOAT	0	12	[0, 0, 0]	n/a	1	1	4600	PST2	PST3	1500.0	50	230	300	PAL2	0	R1118N
1483.736	0.493	2608534	REC_EVENT	4.541	n/a	DOCK	BALL	5	5	BALL	BOAT	0	12	[0, 0, 0]	n/a	0	1	0	n/a	n/a	0.0	0	0	0	PAL2	0	R1118N
1484.229	0.017	2609027	REC_END	n/a	n/a	n/a	n/a	5	-999	n/a	n/a	-999	12	[0, 0, 0]	n/a	0	1	0	n/a	n/a	0.0	0	0	0	PAL2	0	R1118N
1484.246	0.25	2609044	TEST_ORIENT	n/a	n/a	DEER	BAG	4	6	DEER	BAG	1	12	[0, 0, 0]	n/a	0	1	0	n/a	n/a	0.0	0	0	0	PAL2	0	R1118N
1485.079	4.0	2609877	TEST_PROBE	n/a	wordpools/wordpool_EN.txt	DEER	BAG	4	6	DEER	BAG	1	12	[0, 0, 0]	n/a	0	1	0	n/a	n/a	0.0	0	0	0	PAL2	0	R1118N
1485.08	1.803	2609878	REC_START	n/a	n/a	n/a	n/a	4	-999	n/a	BAG	1	12	[0, 0, 0]	n/a	0	1	0	n/a	n/a	0.0	0	0	0	PAL2	0	R1118N
1486.883	3.222	2611681	REC_EVENT	1.803	n/a	DEER	BAG	4	6	DEER	BAG	1	12	[0, 0, 0]	n/a	0	1	0	n/a	n/a	0.0	0	0	0	PAL2	0	R1118N
1490.105	0.025	2614903	REC_END	n/a	n/a	n/a	n/a	4	-999	n/a	n/a	-999	12	[0, 0, 0]	n/a	0	1	0	n/a	n/a	0.0	0	0	0	PAL2	0	R1118N
1490.13	9.473	2614928	FEEDBACK_SHOW_ALL_PAIRS	n/a	n/a	n/a	n/a	4	-999	n/a	n/a	-999	12	[0, 0, 0]	n/a	0	1	0	n/a	n/a	0.0	0	0	0	PAL2	0	R1118N
1499.603	10.447	2624400	ENCODING_START	n/a	n/a	n/a	n/a	0	-999	n/a	n/a	-999	13	[0, 0, 0]	n/a	0	1	0	n/a	n/a	0.0	0	0	0	PAL2	0	R1118N
1510.05	0.25	2634847	STUDY_ORIENT	n/a	n/a	MOUTH	HOLE	1	3	HOLE	HOSE	0	13	[0, 0, 0]	n/a	0	1	0	n/a	n/a	0.0	0	0	0	PAL2	0	R1118N
1511.05	4.0	2635847	STUDY_PAIR	n/a	wordpools/wordpool_EN.txt	MOUTH	HOLE	1	3	HOLE	HOSE	0	13	[0, 0, 0]	n/a	0	1	0	n/a	n/a	0.0	0	0	0	PAL2	0	R1118N
1516.068	0.25	2640865	STUDY_ORIENT	n/a	n/a	FRUIT	TEETH	2	6	TEETH	n/a	0	13	[0, 0, 0]	n/a	0	1	0	n/a	n/a	0.0	0	0	0	PAL2	0	R1118N
1516.985	4.0	2641782	STUDY_PAIR	n/a	wordpools/wordpool_EN.txt	FRUIT	TEETH	2	6	TEETH	n/a	0	13	[0, 0, 0]	n/a	0	1	0	n/a	n/a	0.0	0	0	0	PAL2	0	R1118N
1522.019	0.25	2646816	STUDY_ORIENT	n/a	n/a	FUR	LAWN	3	5	LAWN	FUR	1	13	[0, 0, 0]	n/a	0	1	0	n/a	n/a	0.0	0	0	0	PAL2	0	R1118N
1523.002	4.0	2647799	STUDY_PAIR	n/a	wordpools/wordpool_EN.txt	FUR	LAWN	3	5	LAWN	FUR	1	13	[0, 0, 0]	n/a	0	1	0	n/a	n/a	0.0	0	0	0	PAL2	0	R1118N
1528.02	0.25	2652816	STUDY_ORIENT	n/a	n/a	BEAK	PIPE	4	2	PIPE	n/a	0	13	[0, 0, 0]	n/a	0	1	0	n/a	n/a	0.0	0	0	0	PAL2	0	R1118N
1528.837	4.0	2653633	STUDY_PAIR	n/a	wordpools/wordpool_EN.txt	BEAK	PIPE	4	2	PIPE	n/a	0	13	[0, 0, 0]	n/a	0	1	0	n/a	n/a	0.0	0	0	0	PAL2	0	R1118N
1533.871	0.25	2658667	STUDY_ORIENT	n/a	n/a	LOCK	ROOT	5	1	LOCK	n/a	0	13	[0, 0, 0]	n/a	0	1	0	n/a	n/a	0.0	0	0	0	PAL2	0	R1118N
1534.654	4.0	2659450	STUDY_PAIR	n/a	wordpools/wordpool_EN.txt	LOCK	ROOT	5	1	LOCK	n/a	0	13	[0, 0, 0]	n/a	0	1	0	n/a	n/a	0.0	0	0	0	PAL2	0	R1118N
1539.672	0.25	2664468	STUDY_ORIENT	n/a	n/a	YARD	HORSE	6	4	HORSE	YARD	1	13	[0, 0, 0]	n/a	0	1	0	n/a	n/a	0.0	0	0	0	PAL2	0	R1118N
1540.456	4.0	2665252	STUDY_PAIR	n/a	wordpools/wordpool_EN.txt	YARD	HORSE	6	4	HORSE	YARD	1	13	[0, 0, 0]	n/a	0	1	0	n/a	n/a	0.0	0	0	0	PAL2	0	R1118N
1544.457	1.0	2669253	START	n/a	n/a	n/a	n/a	-999	-999	n/a	n/a	-999	13	[-999, -999, -999]	n/a	0	1	0	n/a	n/a	0.0	0	0	0	PAL2	0	R1118N
1545.457	0.017	2670253	MATH_START	n/a	n/a	n/a	n/a	-999	-999	n/a	n/a	-999	13	[0, 0, 0]	n/a	0	1	0	n/a	n/a	0.0	0	0	0	PAL2	0	R1118N
1545.474	2.432	2670270	PROB	2.409	n/a	n/a	n/a	-999	-999	n/a	n/a	-999	13	[1, 9, 4]	14	0	1	0	n/a	n/a	0.0	0	0	0	PAL2	0	R1118N
1547.906	4.901	2672702	PROB	4.881	n/a	n/a	n/a	-999	-999	n/a	n/a	-999	13	[3, 3, 5]	11	0	1	0	n/a	n/a	0.0	0	0	0	PAL2	0	R1118N
1552.807	5.652	2677603	PROB	5.621	n/a	n/a	n/a	-999	-999	n/a	n/a	-999	13	[9, 9, 7]	22	0	1	0	n/a	n/a	0.0	0	0	0	PAL2	0	R1118N
1558.459	2.483	2683254	PROB	2.456	n/a	n/a	n/a	-999	-999	n/a	n/a	-999	13	[3, 9, 7]	17	0	1	0	n/a	n/a	0.0	0	0	0	PAL2	0	R1118N
1560.942	2.95	2685737	PROB	2.917	n/a	n/a	n/a	-999	-999	n/a	n/a	-999	13	[5, 2, 5]	12	0	1	0	n/a	n/a	0.0	0	0	0	PAL2	0	R1118N
1563.892	4.999	2688687	PROB	4.999	n/a	n/a	n/a	-999	-999	n/a	n/a	-999	13	[7, 7, 7]	21	0	1	0	n/a	n/a	0.0	0	0	0	PAL2	0	R1118N
1568.891	0.002	2693686	STOP	n/a	n/a	n/a	n/a	-999	-999	n/a	n/a	-999	13	[-999, -999, -999]	n/a	0	1	0	n/a	n/a	0.0	0	0	0	PAL2	0	R1118N
1568.893	0.0	2693688	MATH_END	n/a	n/a	n/a	n/a	-999	-999	n/a	n/a	-999	13	[0, 0, 0]	n/a	0	1	0	n/a	n/a	0.0	0	0	0	PAL2	0	R1118N
1568.893	0.017	2693688	TEST_START	n/a	n/a	n/a	n/a	-999	-999	n/a	n/a	-999	13	[0, 0, 0]	n/a	0	1	0	n/a	n/a	0.0	0	0	0	PAL2	0	R1118N
1568.91	0.25	2693705	TEST_ORIENT	n/a	n/a	LOCK	ROOT	5	1	LOCK	n/a	0	13	[0, 0, 0]	n/a	0	1	0	n/a	n/a	0.0	0	0	0	PAL2	0	R1118N
1569.844	4.0	2694639	TEST_PROBE	n/a	wordpools/wordpool_EN.txt	LOCK	ROOT	5	1	LOCK	n/a	0	13	[0, 0, 0]	n/a	0	1	0	n/a	n/a	0.0	0	0	0	PAL2	0	R1118N
1569.844	5.015	2694639	REC_START	n/a	n/a	n/a	n/a	5	-999	n/a	n/a	0	13	[0, 0, 0]	n/a	0	1	0	n/a	n/a	0.0	0	0	0	PAL2	0	R1118N
1574.859	0.002	2699654	REC_EVENT	5.015	n/a	LOCK	ROOT	5	1	LOCK	<>	0	13	[0, 0, 0]	n/a	0	1	0	n/a	n/a	0.0	0	0	0	PAL2	0	R1118N
1574.861	0.017	2699656	REC_END	n/a	n/a	n/a	n/a	5	-999	n/a	n/a	-999	13	[0, 0, 0]	n/a	0	1	0	n/a	n/a	0.0	0	0	0	PAL2	0	R1118N
1574.878	0.25	2699673	TEST_ORIENT	n/a	n/a	BEAK	PIPE	4	2	PIPE	n/a	0	13	[0, 0, 0]	n/a	0	1	0	n/a	n/a	0.0	0	0	0	PAL2	0	R1118N
1575.499	4.6	2700294	STIM_ON	n/a	n/a	BEAK	PIPE	4	2	PIPE	n/a	0	13	[0, 0, 0]	n/a	1	1	4600	PST2	PST3	1500.0	50	230	300	PAL2	0	R1118N
1575.711	4.0	2700506	TEST_PROBE	n/a	wordpools/wordpool_EN.txt	BEAK	PIPE	4	2	PIPE	n/a	0	13	[0, 0, 0]	n/a	1	1	4600	PST2	PST3	1500.0	50	230	300	PAL2	0	R1118N
1575.712	3.947	2700507	REC_START	n/a	n/a	n/a	n/a	4	-999	n/a	n/a	0	13	[0, 0, 0]	n/a	1	1	4600	PST2	PST3	1500.0	50	230	300	PAL2	0	R1118N
1579.659	1.061	2704454	REC_EVENT	3.947	n/a	BEAK	PIPE	4	2	PIPE	<>	0	13	[0, 0, 0]	n/a	1	1	4600	PST2	PST3	1500.0	50	230	300	PAL2	0	R1118N
1580.72	0.009	2705515	REC_END	n/a	n/a	n/a	n/a	4	-999	n/a	n/a	-999	13	[0, 0, 0]	n/a	0	1	0	n/a	n/a	0.0	0	0	0	PAL2	0	R1118N
1580.729	0.25	2705524	TEST_ORIENT	n/a	n/a	MOUTH	HOLE	1	3	HOLE	HOSE	0	13	[0, 0, 0]	n/a	0	1	0	n/a	n/a	0.0	0	0	0	PAL2	0	R1118N
1581.712	4.0	2706506	TEST_PROBE	n/a	wordpools/wordpool_EN.txt	MOUTH	HOLE	1	3	HOLE	HOSE	0	13	[0, 0, 0]	n/a	0	1	0	n/a	n/a	0.0	0	0	0	PAL2	0	R1118N
1581.713	4.466	2706507	REC_START	n/a	n/a	n/a	n/a	1	-999	n/a	HOSE	0	13	[0, 0, 0]	n/a	0	1	0	n/a	n/a	0.0	0	0	0	PAL2	0	R1118N
1586.179	0.545	2710973	REC_EVENT	4.466	n/a	MOUTH	HOLE	1	3	HOLE	HOSE	0	13	[0, 0, 0]	n/a	0	1	0	n/a	n/a	0.0	0	0	0	PAL2	0	R1118N
1586.724	0.005	2711518	REC_END	n/a	n/a	n/a	n/a	1	-999	n/a	n/a	-999	13	[0, 0, 0]	n/a	0	1	0	n/a	n/a	0.0	0	0	0	PAL2	0	R1118N
1586.729	0.25	2711523	TEST_ORIENT	n/a	n/a	YARD	HORSE	6	4	HORSE	YARD	1	13	[0, 0, 0]	n/a	0	1	0	n/a	n/a	0.0	0	0	0	PAL2	0	R1118N
1587.432	4.6	2712226	STIM_ON	n/a	n/a	YARD	HORSE	6	4	HORSE	YARD	1	13	[0, 0, 0]	n/a	1	1	4600	PST2	PST3	1500.0	50	230	300	PAL2	0	R1118N
1587.646	4.0	2712440	TEST_PROBE	n/a	wordpools/wordpool_EN.txt	YARD	HORSE	6	4	HORSE	YARD	1	13	[0, 0, 0]	n/a	1	1	4600	PST2	PST3	1500.0	50	230	300	PAL2	0	R1118N
1587.647	2.55	2712441	REC_START	n/a	n/a	n/a	n/a	6	-999	n/a	YARD	1	13	[0, 0, 0]	n/a	1	1	4600	PST2	PST3	1500.0	50	230	300	PAL2	0	R1118N
1590.197	2.457	2714991	REC_EVENT	2.55	n/a	YARD	HORSE	6	4	HORSE	YARD	1	13	[0, 0, 0]	n/a	1	1	4600	PST2	PST3	1500.0	50	230	300	PAL2	0	R1118N
1592.654	0.01	2717448	REC_END	n/a	n/a	n/a	n/a	6	-999	n/a	n/a	-999	13	[0, 0, 0]	n/a	0	1	0	n/a	n/a	0.0	0	0	0	PAL2	0	R1118N
1592.664	0.25	2717458	TEST_ORIENT	n/a	n/a	FUR	LAWN	3	5	LAWN	FUR	1	13	[0, 0, 0]	n/a	0	1	0	n/a	n/a	0.0	0	0	0	PAL2	0	R1118N
1593.614	4.0	2718408	TEST_PROBE	n/a	wordpools/wordpool_EN.txt	FUR	LAWN	3	5	LAWN	FUR	1	13	[0, 0, 0]	n/a	0	1	0	n/a	n/a	0.0	0	0	0	PAL2	0	R1118N
1593.615	1.963	2718409	REC_START	n/a	n/a	n/a	n/a	3	-999	n/a	FUR	1	13	[0, 0, 0]	n/a	0	1	0	n/a	n/a	0.0	0	0	0	PAL2	0	R1118N
1595.578	3.062	2720372	REC_EVENT	1.963	n/a	FUR	LAWN	3	5	LAWN	FUR	1	13	[0, 0, 0]	n/a	0	1	0	n/a	n/a	0.0	0	0	0	PAL2	0	R1118N
1598.64	0.008	2723434	REC_END	n/a	n/a	n/a	n/a	3	-999	n/a	n/a	-999	13	[0, 0, 0]	n/a	0	1	0	n/a	n/a	0.0	0	0	0	PAL2	0	R1118N
1598.648	0.25	2723442	TEST_ORIENT	n/a	n/a	FRUIT	TEETH	2	6	TEETH	n/a	0	13	[0, 0, 0]	n/a	0	1	0	n/a	n/a	0.0	0	0	0	PAL2	0	R1118N
1599.383	4.6	2724177	STIM_ON	n/a	n/a	FRUIT	TEETH	2	6	TEETH	n/a	0	13	[0, 0, 0]	n/a	1	1	4600	PST2	PST3	1500.0	50	230	300	PAL2	0	R1118N
1599.599	4.0	2724393	TEST_PROBE	n/a	wordpools/wordpool_EN.txt	FRUIT	TEETH	2	6	TEETH	n/a	0	13	[0, 0, 0]	n/a	1	1	4600	PST2	PST3	1500.0	50	230	300	PAL2	0	R1118N
1599.599	2.06	2724393	REC_START	n/a	n/a	n/a	n/a	2	-999	n/a	n/a	0	13	[0, 0, 0]	n/a	1	1	4600	PST2	PST3	1500.0	50	230	300	PAL2	0	R1118N
1601.659	2.957	2726453	REC_EVENT	2.06	n/a	FRUIT	TEETH	2	6	TEETH	<>	0	13	[0, 0, 0]	n/a	1	1	4600	PST2	PST3	1500.0	50	230	300	PAL2	0	R1118N
1604.616	0.016	2729410	REC_END	n/a	n/a	n/a	n/a	2	-999	n/a	n/a	-999	13	[0, 0, 0]	n/a	0	1	0	n/a	n/a	0.0	0	0	0	PAL2	0	R1118N
1604.632	9.635	2729426	FEEDBACK_SHOW_ALL_PAIRS	n/a	n/a	n/a	n/a	2	-999	n/a	n/a	-999	13	[0, 0, 0]	n/a	0	1	0	n/a	n/a	0.0	0	0	0	PAL2	0	R1118N
1614.267	10.452	2739060	ENCODING_START	n/a	n/a	n/a	n/a	0	-999	n/a	n/a	-999	14	[0, 0, 0]	n/a	0	1	0	n/a	n/a	0.0	0	0	0	PAL2	0	R1118N
1624.719	0.25	2749512	STUDY_ORIENT	n/a	n/a	OAK	SKUNK	1	1	OAK	SKUNK	1	14	[0, 0, 0]	n/a	0	1	0	n/a	n/a	0.0	0	0	0	PAL2	0	R1118N
1625.57	4.0	2750363	STUDY_PAIR	n/a	wordpools/wordpool_EN.txt	OAK	SKUNK	1	1	OAK	SKUNK	1	14	[0, 0, 0]	n/a	0	1	0	n/a	n/a	0.0	0	0	0	PAL2	0	R1118N
1630.604	0.25	2755397	STUDY_ORIENT	n/a	n/a	PET	SKY	2	2	SKY	n/a	0	14	[0, 0, 0]	n/a	0	1	0	n/a	n/a	0.0	0	0	0	PAL2	0	R1118N
1631.255	4.6	2756048	STIM_ON	n/a	n/a	PET	SKY	2	2	SKY	n/a	0	14	[0, 0, 0]	n/a	1	1	4600	PST2	PST3	1500.0	50	230	300	PAL2	0	R1118N
1631.471	4.0	2756264	STUDY_PAIR	n/a	wordpools/wordpool_EN.txt	PET	SKY	2	2	SKY	n/a	0	14	[0, 0, 0]	n/a	1	1	4600	PST2	PST3	1500.0	50	230	300	PAL2	0	R1118N
1636.489	0.25	2761281	STUDY_ORIENT	n/a	n/a	STONE	CART	3	5	CART	n/a	0	14	[0, 0, 0]	n/a	0	1	0	n/a	n/a	0.0	0	0	0	PAL2	0	R1118N
1637.423	4.0	2762215	STUDY_PAIR	n/a	wordpools/wordpool_EN.txt	STONE	CART	3	5	CART	n/a	0	14	[0, 0, 0]	n/a	0	1	0	n/a	n/a	0.0	0	0	0	PAL2	0	R1118N
1642.457	0.25	2767249	STUDY_ORIENT	n/a	n/a	DART	SMILE	4	6	SMILE	n/a	0	14	[0, 0, 0]	n/a	0	1	0	n/a	n/a	0.0	0	0	0	PAL2	0	R1118N
1643.156	4.6	2767948	STIM_ON	n/a	n/a	DART	SMILE	4	6	SMILE	n/a	0	14	[0, 0, 0]	n/a	1	1	4600	PST2	PST3	1500.0	50	230	300	PAL2	0	R1118N
1643.373	4.0	2768165	STUDY_PAIR	n/a	wordpools/wordpool_EN.txt	DART	SMILE	4	6	SMILE	n/a	0	14	[0, 0, 0]	n/a	1	1	4600	PST2	PST3	1500.0	50	230	300	PAL2	0	R1118N
1648.407	0.25	2773199	STUDY_ORIENT	n/a	n/a	STEM	SINK	5	3	SINK	HOSE	0	14	[0, 0, 0]	n/a	0	1	0	n/a	n/a	0.0	0	0	0	PAL2	0	R1118N
1649.357	4.0	2774149	STUDY_PAIR	n/a	wordpools/wordpool_EN.txt	STEM	SINK	5	3	SINK	HOSE	0	14	[0, 0, 0]	n/a	0	1	0	n/a	n/a	0.0	0	0	0	PAL2	0	R1118N
1654.391	0.25	2779183	STUDY_ORIENT	n/a	n/a	PEN	TANK	6	4	PEN	n/a	0	14	[0, 0, 0]	n/a	0	1	0	n/a	n/a	0.0	0	0	0	PAL2	0	R1118N
1655.194	4.6	2779986	STIM_ON	n/a	n/a	PEN	TANK	6	4	PEN	n/a	0	14	[0, 0, 0]	n/a	1	1	4600	PST2	PST3	1500.0	50	230	300	PAL2	0	R1118N
1655.408	4.0	2780200	STUDY_PAIR	n/a	wordpools/wordpool_EN.txt	PEN	TANK	6	4	PEN	n/a	0	14	[0, 0, 0]	n/a	1	1	4600	PST2	PST3	1500.0	50	230	300	PAL2	0	R1118N
1659.427	0.999	2784219	START	n/a	n/a	n/a	n/a	-999	-999	n/a	n/a	-999	14	[-999, -999, -999]	n/a	0	1	0	n/a	n/a	0.0	0	0	0	PAL2	0	R1118N
1660.426	0.017	2785218	MATH_START	n/a	n/a	n/a	n/a	-999	-999	n/a	n/a	-999	14	[0, 0, 0]	n/a	0	1	0	n/a	n/a	0.0	0	0	0	PAL2	0	R1118N
1660.443	10.035	2785235	PROB	10.009	n/a	n/a	n/a	-999	-999	n/a	n/a	-999	14	[9, 6, 7]	30	0	1	0	n/a	n/a	0.0	0	0	0	PAL2	0	R1118N
1670.478	2.816	2795269	PROB	2.797	n/a	n/a	n/a	-999	-999	n/a	n/a	-999	14	[5, 3, 2]	10	0	1	0	n/a	n/a	0.0	0	0	0	PAL2	0	R1118N
1673.294	4.018	2798085	PROB	3.997	n/a	n/a	n/a	-999	-999	n/a	n/a	-999	14	[2, 6, 3]	11	0	1	0	n/a	n/a	0.0	0	0	0	PAL2	0	R1118N
1677.312	6.539	2802103	PROB	6.539	n/a	n/a	n/a	-999	-999	n/a	n/a	-999	14	[5, 6, 9]	19	0	1	0	n/a	n/a	0.0	0	0	0	PAL2	0	R1118N
1683.851	0.012	2808642	STOP	n/a	n/a	n/a	n/a	-999	-999	n/a	n/a	-999	14	[-999, -999, -999]	n/a	0	1	0	n/a	n/a	0.0	0	0	0	PAL2	0	R1118N
1683.863	0.0	2808654	MATH_END	n/a	n/a	n/a	n/a	-999	-999	n/a	n/a	-999	14	[0, 0, 0]	n/a	0	1	0	n/a	n/a	0.0	0	0	0	PAL2	0	R1118N
1683.863	0.016	2808654	TEST_START	n/a	n/a	n/a	n/a	-999	-999	n/a	n/a	-999	14	[0, 0, 0]	n/a	0	1	0	n/a	n/a	0.0	0	0	0	PAL2	0	R1118N
1683.879	0.25	2808670	TEST_ORIENT	n/a	n/a	OAK	SKUNK	1	1	OAK	SKUNK	1	14	[0, 0, 0]	n/a	0	1	0	n/a	n/a	0.0	0	0	0	PAL2	0	R1118N
1684.696	4.0	2809487	TEST_PROBE	n/a	wordpools/wordpool_EN.txt	OAK	SKUNK	1	1	OAK	SKUNK	1	14	[0, 0, 0]	n/a	0	1	0	n/a	n/a	0.0	0	0	0	PAL2	0	R1118N
1684.697	3.638	2809488	REC_START	n/a	n/a	n/a	n/a	1	-999	n/a	SKUNK	1	14	[0, 0, 0]	n/a	0	1	0	n/a	n/a	0.0	0	0	0	PAL2	0	R1118N
1688.335	1.37	2813126	REC_EVENT	3.638	n/a	OAK	SKUNK	1	1	OAK	SKUNK	1	14	[0, 0, 0]	n/a	0	1	0	n/a	n/a	0.0	0	0	0	PAL2	0	R1118N
1689.705	0.009	2814496	REC_END	n/a	n/a	n/a	n/a	1	-999	n/a	n/a	-999	14	[0, 0, 0]	n/a	0	1	0	n/a	n/a	0.0	0	0	0	PAL2	0	R1118N
1689.714	0.25	2814505	TEST_ORIENT	n/a	n/a	PET	SKY	2	2	SKY	n/a	0	14	[0, 0, 0]	n/a	0	1	0	n/a	n/a	0.0	0	0	0	PAL2	0	R1118N
1690.514	4.0	2815305	TEST_PROBE	n/a	wordpools/wordpool_EN.txt	PET	SKY	2	2	SKY	n/a	0	14	[0, 0, 0]	n/a	0	1	0	n/a	n/a	0.0	0	0	0	PAL2	0	R1118N
1690.514	3.68	2815305	REC_START	n/a	n/a	n/a	n/a	2	-999	n/a	n/a	0	14	[0, 0, 0]	n/a	0	1	0	n/a	n/a	0.0	0	0	0	PAL2	0	R1118N
1694.194	1.337	2818984	REC_EVENT	3.68	n/a	PET	SKY	2	2	SKY	<>	0	14	[0, 0, 0]	n/a	0	1	0	n/a	n/a	0.0	0	0	0	PAL2	0	R1118N
1695.531	0.017	2820321	REC_END	n/a	n/a	n/a	n/a	2	-999	n/a	n/a	-999	14	[0, 0, 0]	n/a	0	1	0	n/a	n/a	0.0	0	0	0	PAL2	0	R1118N
1695.548	0.25	2820338	TEST_ORIENT	n/a	n/a	STEM	SINK	5	3	SINK	HOSE	0	14	[0, 0, 0]	n/a	0	1	0	n/a	n/a	0.0	0	0	0	PAL2	0	R1118N
1696.565	4.0	2821355	TEST_PROBE	n/a	wordpools/wordpool_EN.txt	STEM	SINK	5	3	SINK	HOSE	0	14	[0, 0, 0]	n/a	0	1	0	n/a	n/a	0.0	0	0	0	PAL2	0	R1118N
1696.566	4.466	2821356	REC_START	n/a	n/a	n/a	n/a	5	-999	n/a	HOSE	0	14	[0, 0, 0]	n/a	0	1	0	n/a	n/a	0.0	0	0	0	PAL2	0	R1118N
1701.032	0.55	2825822	REC_EVENT	4.466	n/a	STEM	SINK	5	3	SINK	HOSE	0	14	[0, 0, 0]	n/a	0	1	0	n/a	n/a	0.0	0	0	0	PAL2	0	R1118N
