onset	duration	sample	trial_type	response_time	stim_file	study_1	study_2	serialpos	probepos	probe_word	resp_word	correct	list	test	answer	stimulation	stim_list	stim_duration	anode_label	cathode_label	amplitude	pulse_freq	n_pulses	pulse_width	experiment	session	subject
0.0	111.604	10122	SESS_START	n/a	n/a	n/a	n/a	-999	-999	n/a	n/a	-999	-999	[0, 0, 0]	n/a	0	0	0	n/a	n/a	0.0	0	0	0	PAL2	0	R1060M
111.604	1.017	65921	START	n/a	n/a	n/a	n/a	-999	-999	n/a	n/a	-999	-1	[-999, -999, -999]	n/a	0	-999	0	n/a	n/a	0.0	0	0	0	PAL2	0	R1060M
112.621	3.617	66429	PROB	3.583	n/a	n/a	n/a	-999	-999	n/a	n/a	-999	-1	[1, 9, 9]	19	0	-999	0	n/a	n/a	0.0	0	0	0	PAL2	0	R1060M
116.238	4.801	68238	PROB	4.774	n/a	n/a	n/a	-999	-999	n/a	n/a	-999	-1	[5, 8, 3]	16	0	-999	0	n/a	n/a	0.0	0	0	0	PAL2	0	R1060M
121.039	4.785	70638	PROB	4.766	n/a	n/a	n/a	-999	-999	n/a	n/a	-999	-1	[8, 8, 5]	21	0	-999	0	n/a	n/a	0.0	0	0	0	PAL2	0	R1060M
125.824	2.883	73030	PROB	2.86	n/a	n/a	n/a	-999	-999	n/a	n/a	-999	-1	[4, 3, 8]	15	0	-999	0	n/a	n/a	0.0	0	0	0	PAL2	0	R1060M
128.707	6.697	74472	PROB	6.697	n/a	n/a	n/a	-999	-999	n/a	n/a	-999	-1	[8, 5, 6]	19	0	-999	0	n/a	n/a	0.0	0	0	0	PAL2	0	R1060M
135.404	47.377	77820	STOP	n/a	n/a	n/a	n/a	-999	-999	n/a	n/a	-999	-1	[-999, -999, -999]	n/a	0	-999	0	n/a	n/a	0.0	0	0	0	PAL2	0	R1060M
182.781	10.439	101507	ENCODING_START	n/a	n/a	n/a	n/a	0	-999	n/a	n/a	-999	1	[0, 0, 0]	n/a	0	1	0	n/a	n/a	0.0	0	0	0	PAL2	0	R1060M
193.22	0.25	106727	STUDY_ORIENT	n/a	n/a	MAP	FUR	1	5	MAP	n/a	0	1	[0, 0, 0]	n/a	0	1	0	n/a	n/a	0.0	0	0	0	PAL2	0	R1060M
194.154	4.0	107193	STUDY_PAIR	n/a	wordpools/wordpool_EN.txt	MAP	FUR	1	5	MAP	n/a	0	1	[0, 0, 0]	n/a	0	1	0	n/a	n/a	0.0	0	0	0	PAL2	0	R1060M
199.188	0.25	109710	STUDY_ORIENT	n/a	n/a	WAND	SHELL	2	4	WAND	n/a	0	1	[0, 0, 0]	n/a	0	1	0	n/a	n/a	0.0	0	0	0	PAL2	0	R1060M
200.071	4.0	110152	STUDY_PAIR	n/a	wordpools/wordpool_EN.txt	WAND	SHELL	2	4	WAND	n/a	0	1	[0, 0, 0]	n/a	0	1	0	n/a	n/a	0.0	0	0	0	PAL2	0	R1060M
205.089	0.25	112661	STUDY_ORIENT	n/a	n/a	PEACH	STREET	3	3	STREET	n/a	0	1	[0, 0, 0]	n/a	0	1	0	n/a	n/a	0.0	0	0	0	PAL2	0	R1060M
205.89	4.0	113061	STUDY_PAIR	n/a	wordpools/wordpool_EN.txt	PEACH	STREET	3	3	STREET	n/a	0	1	[0, 0, 0]	n/a	0	1	0	n/a	n/a	0.0	0	0	0	PAL2	0	R1060M
210.908	0.25	115570	STUDY_ORIENT	n/a	n/a	JAIL	SWAMP	4	6	SWAMP	n/a	0	1	[0, 0, 0]	n/a	0	1	0	n/a	n/a	0.0	0	0	0	PAL2	0	R1060M
211.875	4.0	116054	STUDY_PAIR	n/a	wordpools/wordpool_EN.txt	JAIL	SWAMP	4	6	SWAMP	n/a	0	1	[0, 0, 0]	n/a	0	1	0	n/a	n/a	0.0	0	0	0	PAL2	0	R1060M
216.909	0.25	118570	STUDY_ORIENT	n/a	n/a	SNOW	GRAPE	5	1	GRAPE	SNOW	1	1	[0, 0, 0]	n/a	0	1	0	n/a	n/a	0.0	0	0	0	PAL2	0	R1060M
217.708	4.0	118970	STUDY_PAIR	n/a	wordpools/wordpool_EN.txt	SNOW	GRAPE	5	1	GRAPE	SNOW	1	1	[0, 0, 0]	n/a	0	1	0	n/a	n/a	0.0	0	0	0	PAL2	0	R1060M
222.726	0.25	121479	STUDY_ORIENT	n/a	n/a	TIE	CLOWN	6	2	CLOWN	n/a	0	1	[0, 0, 0]	n/a	0	1	0	n/a	n/a	0.0	0	0	0	PAL2	0	R1060M
223.543	4.0	121887	STUDY_PAIR	n/a	wordpools/wordpool_EN.txt	TIE	CLOWN	6	2	CLOWN	n/a	0	1	[0, 0, 0]	n/a	0	1	0	n/a	n/a	0.0	0	0	0	PAL2	0	R1060M
227.561	0.999	123896	START	n/a	n/a	n/a	n/a	-999	-999	n/a	n/a	-999	1	[-999, -999, -999]	n/a	0	1	0	n/a	n/a	0.0	0	0	0	PAL2	0	R1060M
228.56	0.017	124396	MATH_START	n/a	n/a	n/a	n/a	-999	-999	n/a	n/a	-999	1	[0, 0, 0]	n/a	0	1	0	n/a	n/a	0.0	0	0	0	PAL2	0	R1060M
228.577	3.202	124404	PROB	3.179	n/a	n/a	n/a	-999	-999	n/a	n/a	-999	1	[3, 4, 3]	10	0	1	0	n/a	n/a	0.0	0	0	0	PAL2	0	R1060M
231.779	2.299	126005	PROB	2.265	n/a	n/a	n/a	-999	-999	n/a	n/a	-999	1	[5, 7, 1]	13	0	1	0	n/a	n/a	0.0	0	0	0	PAL2	0	R1060M
234.078	2.167	127154	PROB	2.134	n/a	n/a	n/a	-999	-999	n/a	n/a	-999	1	[1, 4, 1]	5	0	1	0	n/a	n/a	0.0	0	0	0	PAL2	0	R1060M
236.245	3.501	128238	PROB	3.479	n/a	n/a	n/a	-999	-999	n/a	n/a	-999	1	[4, 7, 3]	14	0	1	0	n/a	n/a	0.0	0	0	0	PAL2	0	R1060M
239.746	2.168	129988	PROB	2.139	n/a	n/a	n/a	-999	-999	n/a	n/a	-999	1	[3, 3, 1]	7	0	1	0	n/a	n/a	0.0	0	0	0	PAL2	0	R1060M
241.914	5.69	131072	PROB	5.69	n/a	n/a	n/a	-999	-999	n/a	n/a	-999	1	[9, 4, 9]	22	0	1	0	n/a	n/a	0.0	0	0	0	PAL2	0	R1060M
247.604	0.01	133917	STOP	n/a	n/a	n/a	n/a	-999	-999	n/a	n/a	-999	1	[-999, -999, -999]	n/a	0	1	0	n/a	n/a	0.0	0	0	0	PAL2	0	R1060M
247.614	0.0	133922	MATH_END	n/a	n/a	n/a	n/a	-999	-999	n/a	n/a	-999	1	[0, 0, 0]	n/a	0	1	0	n/a	n/a	0.0	0	0	0	PAL2	0	R1060M
247.614	0.017	133922	TEST_START	n/a	n/a	n/a	n/a	-999	-999	n/a	n/a	-999	1	[0, 0, 0]	n/a	0	1	0	n/a	n/a	0.0	0	0	0	PAL2	0	R1060M
247.631	0.25	133931	TEST_ORIENT	n/a	n/a	SNOW	GRAPE	5	1	GRAPE	SNOW	1	1	[0, 0, 0]	n/a	0	1	0	n/a	n/a	0.0	0	0	0	PAL2	0	R1060M
248.267	4.6	134249	STIM_ON	n/a	n/a	SNOW	GRAPE	5	1	GRAPE	SNOW	1	1	[0, 0, 0]	n/a	1	1	4600	RFG10	RFG11	3000.0	50	230	300	PAL2	0	R1060M
248.481	4.0	134356	TEST_PROBE	n/a	wordpools/wordpool_EN.txt	SNOW	GRAPE	5	1	GRAPE	SNOW	1	1	[0, 0, 0]	n/a	1	1	4600	RFG10	RFG11	3000.0	50	230	300	PAL2	0	R1060M
248.481	1.055	134356	REC_START	n/a	n/a	n/a	n/a	5	-999	n/a	SNOW	1	1	[0, 0, 0]	n/a	1	1	4600	RFG10	RFG11	3000.0	50	230	300	PAL2	0	R1060M
249.536	3.963	134883	REC_EVENT	1.055	n/a	SNOW	GRAPE	5	1	GRAPE	SNOW	1	1	[0, 0, 0]	n/a	1	1	4600	RFG10	RFG11	3000.0	50	230	300	PAL2	0	R1060M
253.499	0.016	136864	REC_END	n/a	n/a	n/a	n/a	5	-999	n/a	n/a	-999	1	[0, 0, 0]	n/a	0	1	0	n/a	n/a	0.0	0	0	0	PAL2	0	R1060M
253.515	0.25	136872	TEST_ORIENT	n/a	n/a	TIE	CLOWN	6	2	CLOWN	n/a	0	1	[0, 0, 0]	n/a	0	1	0	n/a	n/a	0.0	0	0	0	PAL2	0	R1060M
254.482	4.0	137356	TEST_PROBE	n/a	wordpools/wordpool_EN.txt	TIE	CLOWN	6	2	CLOWN	n/a	0	1	[0, 0, 0]	n/a	0	1	0	n/a	n/a	0.0	0	0	0	PAL2	0	R1060M
254.483	5.003	137356	REC_START	n/a	n/a	n/a	n/a	6	-999	n/a	n/a	0	1	[0, 0, 0]	n/a	0	1	0	n/a	n/a	0.0	0	0	0	PAL2	0	R1060M
259.486	0.004	139858	REC_EVENT	5.003	n/a	TIE	CLOWN	6	2	CLOWN	<>	0	1	[0, 0, 0]	n/a	0	1	0	n/a	n/a	0.0	0	0	0	PAL2	0	R1060M
259.49	0.01	139860	REC_END	n/a	n/a	n/a	n/a	6	-999	n/a	n/a	-999	1	[0, 0, 0]	n/a	0	1	0	n/a	n/a	0.0	0	0	0	PAL2	0	R1060M
259.5	0.25	139865	TEST_ORIENT	n/a	n/a	PEACH	STREET	3	3	STREET	n/a	0	1	[0, 0, 0]	n/a	0	1	0	n/a	n/a	0.0	0	0	0	PAL2	0	R1060M
260.184	4.6	140207	STIM_ON	n/a	n/a	PEACH	STREET	3	3	STREET	n/a	0	1	[0, 0, 0]	n/a	1	1	4600	RFG10	RFG11	3000.0	50	230	300	PAL2	0	R1060M
260.4	4.0	140315	TEST_PROBE	n/a	wordpools/wordpool_EN.txt	PEACH	STREET	3	3	STREET	n/a	0	1	[0, 0, 0]	n/a	1	1	4600	RFG10	RFG11	3000.0	50	230	300	PAL2	0	R1060M
260.401	5.008	140315	REC_START	n/a	n/a	n/a	n/a	3	-999	n/a	n/a	0	1	[0, 0, 0]	n/a	1	1	4600	RFG10	RFG11	3000.0	50	230	300	PAL2	0	R1060M
265.409	0.001	142819	REC_END	n/a	n/a	n/a	n/a	3	-999	n/a	n/a	-999	1	[0, 0, 0]	n/a	0	1	0	n/a	n/a	0.0	0	0	0	PAL2	0	R1060M
265.41	0.008	142820	REC_EVENT	5.009	n/a	PEACH	STREET	3	3	STREET	<>	0	1	[0, 0, 0]	n/a	0	1	0	n/a	n/a	0.0	0	0	0	PAL2	0	R1060M
265.418	0.25	142824	TEST_ORIENT	n/a	n/a	WAND	SHELL	2	4	WAND	n/a	0	1	[0, 0, 0]	n/a	0	1	0	n/a	n/a	0.0	0	0	0	PAL2	0	R1060M
266.368	4.0	143299	TEST_PROBE	n/a	wordpools/wordpool_EN.txt	WAND	SHELL	2	4	WAND	n/a	0	1	[0, 0, 0]	n/a	0	1	0	n/a	n/a	0.0	0	0	0	PAL2	0	R1060M
266.368	5.015	143299	REC_START	n/a	n/a	n/a	n/a	2	-999	n/a	n/a	0	1	[0, 0, 0]	n/a	0	1	0	n/a	n/a	0.0	0	0	0	PAL2	0	R1060M
271.383	0.002	145806	REC_EVENT	5.015	n/a	WAND	SHELL	2	4	WAND	<>	0	1	[0, 0, 0]	n/a	0	1	0	n/a	n/a	0.0	0	0	0	PAL2	0	R1060M
271.385	0.017	145807	REC_END	n/a	n/a	n/a	n/a	2	-999	n/a	n/a	-999	1	[0, 0, 0]	n/a	0	1	0	n/a	n/a	0.0	0	0	0	PAL2	0	R1060M
271.402	0.25	145815	TEST_ORIENT	n/a	n/a	MAP	FUR	1	5	MAP	n/a	0	1	[0, 0, 0]	n/a	0	1	0	n/a	n/a	0.0	0	0	0	PAL2	0	R1060M
272.041	4.6	146135	STIM_ON	n/a	n/a	MAP	FUR	1	5	MAP	n/a	0	1	[0, 0, 0]	n/a	1	1	4600	RFG10	RFG11	3000.0	50	230	300	PAL2	0	R1060M
272.253	4.0	146241	TEST_PROBE	n/a	wordpools/wordpool_EN.txt	MAP	FUR	1	5	MAP	n/a	0	1	[0, 0, 0]	n/a	1	1	4600	RFG10	RFG11	3000.0	50	230	300	PAL2	0	R1060M
272.253	5.015	146241	REC_START	n/a	n/a	n/a	n/a	1	-999	n/a	n/a	0	1	[0, 0, 0]	n/a	1	1	4600	RFG10	RFG11	3000.0	50	230	300	PAL2	0	R1060M
277.268	0.002	148748	REC_EVENT	5.015	n/a	MAP	FUR	1	5	MAP	<>	0	1	[0, 0, 0]	n/a	0	1	0	n/a	n/a	0.0	0	0	0	PAL2	0	R1060M
277.27	0.017	148749	REC_END	n/a	n/a	n/a	n/a	1	-999	n/a	n/a	-999	1	[0, 0, 0]	n/a	0	1	0	n/a	n/a	0.0	0	0	0	PAL2	0	R1060M
277.287	0.25	148758	TEST_ORIENT	n/a	n/a	JAIL	SWAMP	4	6	SWAMP	n/a	0	1	[0, 0, 0]	n/a	0	1	0	n/a	n/a	0.0	0	0	0	PAL2	0	R1060M
278.237	4.0	149233	TEST_PROBE	n/a	wordpools/wordpool_EN.txt	JAIL	SWAMP	4	6	SWAMP	n/a	0	1	[0, 0, 0]	n/a	0	1	0	n/a	n/a	0.0	0	0	0	PAL2	0	R1060M
278.238	5.021	149233	REC_START	n/a	n/a	n/a	n/a	4	-999	n/a	n/a	0	1	[0, 0, 0]	n/a	0	1	0	n/a	n/a	0.0	0	0	0	PAL2	0	R1060M
283.259	0.003	151744	REC_EVENT	5.021	n/a	JAIL	SWAMP	4	6	SWAMP	<>	0	1	[0, 0, 0]	n/a	0	1	0	n/a	n/a	0.0	0	0	0	PAL2	0	R1060M
283.262	5.086	151745	REC_END	n/a	n/a	n/a	n/a	4	-999	n/a	n/a	-999	1	[0, 0, 0]	n/a	0	1	0	n/a	n/a	0.0	0	0	0	PAL2	0	R1060M
288.348	10.444	154288	ENCODING_START	n/a	n/a	n/a	n/a	0	-999	n/a	n/a	-999	2	[0, 0, 0]	n/a	0	0	0	n/a	n/a	0.0	0	0	0	PAL2	0	R1060M
298.792	0.25	159510	STUDY_ORIENT	n/a	n/a	BLOOM	COIN	1	5	BLOOM	n/a	0	2	[0, 0, 0]	n/a	0	0	0	n/a	n/a	0.0	0	0	0	PAL2	0	R1060M
299.725	4.0	159976	STUDY_PAIR	n/a	wordpools/wordpool_EN.txt	BLOOM	COIN	1	5	BLOOM	n/a	0	2	[0, 0, 0]	n/a	0	0	0	n/a	n/a	0.0	0	0	0	PAL2	0	R1060M
304.759	0.25	162493	STUDY_ORIENT	n/a	n/a	SINK	LAKE	2	2	SINK	n/a	0	2	[0, 0, 0]	n/a	0	0	0	n/a	n/a	0.0	0	0	0	PAL2	0	R1060M
305.642	4.0	162934	STUDY_PAIR	n/a	wordpools/wordpool_EN.txt	SINK	LAKE	2	2	SINK	n/a	0	2	[0, 0, 0]	n/a	0	0	0	n/a	n/a	0.0	0	0	0	PAL2	0	R1060M
310.66	0.25	165443	STUDY_ORIENT	n/a	n/a	PLANE	CALF	3	1	CALF	n/a	0	2	[0, 0, 0]	n/a	0	0	0	n/a	n/a	0.0	0	0	0	PAL2	0	R1060M
311.427	4.0	165827	STUDY_PAIR	n/a	wordpools/wordpool_EN.txt	PLANE	CALF	3	1	CALF	n/a	0	2	[0, 0, 0]	n/a	0	0	0	n/a	n/a	0.0	0	0	0	PAL2	0	R1060M
316.461	0.25	168344	STUDY_ORIENT	n/a	n/a	TOOTH	HAND	4	4	HAND	n/a	0	2	[0, 0, 0]	n/a	0	0	0	n/a	n/a	0.0	0	0	0	PAL2	0	R1060M
317.344	4.0	168785	STUDY_PAIR	n/a	wordpools/wordpool_EN.txt	TOOTH	HAND	4	4	HAND	n/a	0	2	[0, 0, 0]	n/a	0	0	0	n/a	n/a	0.0	0	0	0	PAL2	0	R1060M
322.346	0.25	171286	STUDY_ORIENT	n/a	n/a	GRASS	HOSE	5	3	GRASS	n/a	0	2	[0, 0, 0]	n/a	0	0	0	n/a	n/a	0.0	0	0	0	PAL2	0	R1060M
323.346	4.0	171786	STUDY_PAIR	n/a	wordpools/wordpool_EN.txt	GRASS	HOSE	5	3	GRASS	n/a	0	2	[0, 0, 0]	n/a	0	0	0	n/a	n/a	0.0	0	0	0	PAL2	0	R1060M
328.38	0.25	174303	STUDY_ORIENT	n/a	n/a	WING	PLANT	6	6	WING	n/a	0	2	[0, 0, 0]	n/a	0	0	0	n/a	n/a	0.0	0	0	0	PAL2	0	R1060M
329.28	4.0	174753	STUDY_PAIR	n/a	wordpools/wordpool_EN.txt	WING	PLANT	6	6	WING	n/a	0	2	[0, 0, 0]	n/a	0	0	0	n/a	n/a	0.0	0	0	0	PAL2	0	R1060M
333.281	1.0	176753	START	n/a	n/a	n/a	n/a	-999	-999	n/a	n/a	-999	2	[-999, -999, -999]	n/a	0	0	0	n/a	n/a	0.0	0	0	0	PAL2	0	R1060M
334.281	0.017	177253	MATH_START	n/a	n/a	n/a	n/a	-999	-999	n/a	n/a	-999	2	[0, 0, 0]	n/a	0	0	0	n/a	n/a	0.0	0	0	0	PAL2	0	R1060M
334.298	3.117	177262	PROB	3.09	n/a	n/a	n/a	-999	-999	n/a	n/a	-999	2	[9, 8, 2]	19	0	0	0	n/a	n/a	0.0	0	0	0	PAL2	0	R1060M
337.415	2.318	178820	PROB	2.285	n/a	n/a	n/a	-999	-999	n/a	n/a	-999	2	[6, 5, 3]	14	0	0	0	n/a	n/a	0.0	0	0	0	PAL2	0	R1060M
339.733	2.218	179979	PROB	2.184	n/a	n/a	n/a	-999	-999	n/a	n/a	-999	2	[8, 8, 2]	18	0	0	0	n/a	n/a	0.0	0	0	0	PAL2	0	R1060M
341.951	2.633	181088	PROB	2.613	n/a	n/a	n/a	-999	-999	n/a	n/a	-999	2	[5, 8, 5]	18	0	0	0	n/a	n/a	0.0	0	0	0	PAL2	0	R1060M
344.584	3.251	182404	PROB	3.221	n/a	n/a	n/a	-999	-999	n/a	n/a	-999	2	[9, 5, 8]	21	0	0	0	n/a	n/a	0.0	0	0	0	PAL2	0	R1060M
347.835	4.217	184030	PROB	4.185	n/a	n/a	n/a	-999	-999	n/a	n/a	-999	2	[5, 9, 8]	22	0	0	0	n/a	n/a	0.0	0	0	0	PAL2	0	R1060M
352.052	5.216	186138	PROB	5.216	n/a	n/a	n/a	-999	-999	n/a	n/a	-999	2	[7, 9, 3]	19	0	0	0	n/a	n/a	0.0	0	0	0	PAL2	0	R1060M
357.268	0.018	188746	STOP	n/a	n/a	n/a	n/a	-999	-999	n/a	n/a	-999	2	[-999, -999, -999]	n/a	0	0	0	n/a	n/a	0.0	0	0	0	PAL2	0	R1060M
357.286	0.0	188755	MATH_END	n/a	n/a	n/a	n/a	-999	-999	n/a	n/a	-999	2	[0, 0, 0]	n/a	0	0	0	n/a	n/a	0.0	0	0	0	PAL2	0	R1060M
357.286	0.017	188755	TEST_START	n/a	n/a	n/a	n/a	-999	-999	n/a	n/a	-999	2	[0, 0, 0]	n/a	0	0	0	n/a	n/a	0.0	0	0	0	PAL2	0	R1060M
357.303	0.25	188764	TEST_ORIENT	n/a	n/a	PLANE	CALF	3	1	CALF	n/a	0	2	[0, 0, 0]	n/a	0	0	0	n/a	n/a	0.0	0	0	0	PAL2	0	R1060M
358.27	4.0	189247	TEST_PROBE	n/a	wordpools/wordpool_EN.txt	PLANE	CALF	3	1	CALF	n/a	0	2	[0, 0, 0]	n/a	0	0	0	n/a	n/a	0.0	0	0	0	PAL2	0	R1060M
358.27	2.733	189247	REC_START	n/a	n/a	n/a	n/a	3	-999	n/a	n/a	0	2	[0, 0, 0]	n/a	0	0	0	n/a	n/a	0.0	0	0	0	PAL2	0	R1060M
361.003	2.284	190613	REC_EVENT	2.733	n/a	PLANE	CALF	3	1	CALF	<>	0	2	[0, 0, 0]	n/a	0	0	0	n/a	n/a	0.0	0	0	0	PAL2	0	R1060M
363.287	0.017	191755	REC_END	n/a	n/a	n/a	n/a	3	-999	n/a	n/a	-999	2	[0, 0, 0]	n/a	0	0	0	n/a	n/a	0.0	0	0	0	PAL2	0	R1060M
363.304	0.25	191764	TEST_ORIENT	n/a	n/a	SINK	LAKE	2	2	SINK	n/a	0	2	[0, 0, 0]	n/a	0	0	0	n/a	n/a	0.0	0	0	0	PAL2	0	R1060M
364.271	4.0	192247	TEST_PROBE	n/a	wordpools/wordpool_EN.txt	SINK	LAKE	2	2	SINK	n/a	0	2	[0, 0, 0]	n/a	0	0	0	n/a	n/a	0.0	0	0	0	PAL2	0	R1060M
364.271	5.021	192247	REC_START	n/a	n/a	n/a	n/a	2	-999	n/a	n/a	0	2	[0, 0, 0]	n/a	0	0	0	n/a	n/a	0.0	0	0	0	PAL2	0	R1060M
369.292	0.001	194758	REC_EVENT	5.021	n/a	SINK	LAKE	2	2	SINK	<>	0	2	[0, 0, 0]	n/a	0	0	0	n/a	n/a	0.0	0	0	0	PAL2	0	R1060M
369.293	0.012	194758	REC_END	n/a	n/a	n/a	n/a	2	-999	n/a	n/a	-999	2	[0, 0, 0]	n/a	0	0	0	n/a	n/a	0.0	0	0	0	PAL2	0	R1060M
369.305	0.25	194764	TEST_ORIENT	n/a	n/a	GRASS	HOSE	5	3	GRASS	n/a	0	2	[0, 0, 0]	n/a	0	0	0	n/a	n/a	0.0	0	0	0	PAL2	0	R1060M
370.305	4.0	195264	TEST_PROBE	n/a	wordpools/wordpool_EN.txt	GRASS	HOSE	5	3	GRASS	n/a	0	2	[0, 0, 0]	n/a	0	0	0	n/a	n/a	0.0	0	0	0	PAL2	0	R1060M
370.306	5.009	195265	REC_START	n/a	n/a	n/a	n/a	5	-999	n/a	n/a	0	2	[0, 0, 0]	n/a	0	0	0	n/a	n/a	0.0	0	0	0	PAL2	0	R1060M
375.315	0.001	197769	REC_EVENT	5.009	n/a	GRASS	HOSE	5	3	GRASS	<>	0	2	[0, 0, 0]	n/a	0	0	0	n/a	n/a	0.0	0	0	0	PAL2	0	R1060M
375.316	0.007	197770	REC_END	n/a	n/a	n/a	n/a	5	-999	n/a	n/a	-999	2	[0, 0, 0]	n/a	0	0	0	n/a	n/a	0.0	0	0	0	PAL2	0	R1060M
375.323	0.25	197773	TEST_ORIENT	n/a	n/a	TOOTH	HAND	4	4	HAND	n/a	0	2	[0, 0, 0]	n/a	0	0	0	n/a	n/a	0.0	0	0	0	PAL2	0	R1060M
376.306	4.0	198265	TEST_PROBE	n/a	wordpools/wordpool_EN.txt	TOOTH	HAND	4	4	HAND	n/a	0	2	[0, 0, 0]	n/a	0	0	0	n/a	n/a	0.0	0	0	0	PAL2	0	R1060M
376.307	5.009	198265	REC_START	n/a	n/a	n/a	n/a	4	-999	n/a	n/a	0	2	[0, 0, 0]	n/a	0	0	0	n/a	n/a	0.0	0	0	0	PAL2	0	R1060M
381.316	0.0	200769	REC_EVENT	5.009	n/a	TOOTH	HAND	4	4	HAND	<>	0	2	[0, 0, 0]	n/a	0	0	0	n/a	n/a	0.0	0	0	0	PAL2	0	R1060M
381.316	0.008	200769	REC_END	n/a	n/a	n/a	n/a	4	-999	n/a	n/a	-999	2	[0, 0, 0]	n/a	0	0	0	n/a	n/a	0.0	0	0	0	PAL2	0	R1060M
381.324	0.25	200773	TEST_ORIENT	n/a	n/a	BLOOM	COIN	1	5	BLOOM	n/a	0	2	[0, 0, 0]	n/a	0	0	0	n/a	n/a	0.0	0	0	0	PAL2	0	R1060M
382.358	4.0	201290	TEST_PROBE	n/a	wordpools/wordpool_EN.txt	BLOOM	COIN	1	5	BLOOM	n/a	0	2	[0, 0, 0]	n/a	0	0	0	n/a	n/a	0.0	0	0	0	PAL2	0	R1060M
382.359	5.026	201291	REC_START	n/a	n/a	n/a	n/a	1	-999	n/a	n/a	0	2	[0, 0, 0]	n/a	0	0	0	n/a	n/a	0.0	0	0	0	PAL2	0	R1060M
387.385	0.001	203804	REC_END	n/a	n/a	n/a	n/a	1	-999	n/a	n/a	-999	2	[0, 0, 0]	n/a	0	0	0	n/a	n/a	0.0	0	0	0	PAL2	0	R1060M
387.386	0.023	203804	REC_EVENT	5.027	n/a	BLOOM	COIN	1	5	BLOOM	<>	0	2	[0, 0, 0]	n/a	0	0	0	n/a	n/a	0.0	0	0	0	PAL2	0	R1060M
387.409	0.25	203816	TEST_ORIENT	n/a	n/a	WING	PLANT	6	6	WING	n/a	0	2	[0, 0, 0]	n/a	0	0	0	n/a	n/a	0.0	0	0	0	PAL2	0	R1060M
388.292	4.0	204257	TEST_PROBE	n/a	wordpools/wordpool_EN.txt	WING	PLANT	6	6	WING	n/a	0	2	[0, 0, 0]	n/a	0	0	0	n/a	n/a	0.0	0	0	0	PAL2	0	R1060M
388.293	5.009	204258	REC_START	n/a	n/a	n/a	n/a	6	-999	n/a	n/a	0	2	[0, 0, 0]	n/a	0	0	0	n/a	n/a	0.0	0	0	0	PAL2	0	R1060M
393.302	0.0	206762	REC_EVENT	5.009	n/a	WING	PLANT	6	6	WING	<>	0	2	[0, 0, 0]	n/a	0	0	0	n/a	n/a	0.0	0	0	0	PAL2	0	R1060M
393.302	4.798	206762	REC_END	n/a	n/a	n/a	n/a	6	-999	n/a	n/a	-999	2	[0, 0, 0]	n/a	0	0	0	n/a	n/a	0.0	0	0	0	PAL2	0	R1060M
398.1	10.446	209161	ENCODING_START	n/a	n/a	n/a	n/a	0	-999	n/a	n/a	-999	3	[0, 0, 0]	n/a	0	0	0	n/a	n/a	0.0	0	0	0	PAL2	0	R1060M
408.546	0.25	214384	STUDY_ORIENT	n/a	n/a	BREAD	GLASS	1	1	GLASS	n/a	0	3	[0, 0, 0]	n/a	0	0	0	n/a	n/a	0.0	0	0	0	PAL2	0	R1060M
409.363	4.0	214792	STUDY_PAIR	n/a	wordpools/wordpool_EN.txt	BREAD	GLASS	1	1	GLASS	n/a	0	3	[0, 0, 0]	n/a	0	0	0	n/a	n/a	0.0	0	0	0	PAL2	0	R1060M
414.397	0.25	217309	STUDY_ORIENT	n/a	n/a	FILM	GEESE	2	4	GEESE	n/a	0	3	[0, 0, 0]	n/a	0	0	0	n/a	n/a	0.0	0	0	0	PAL2	0	R1060M
415.314	4.0	217767	STUDY_PAIR	n/a	wordpools/wordpool_EN.txt	FILM	GEESE	2	4	GEESE	n/a	0	3	[0, 0, 0]	n/a	0	0	0	n/a	n/a	0.0	0	0	0	PAL2	0	R1060M
420.332	0.25	220276	STUDY_ORIENT	n/a	n/a	SLIME	BANK	3	5	SLIME	n/a	0	3	[0, 0, 0]	n/a	0	0	0	n/a	n/a	0.0	0	0	0	PAL2	0	R1060M
421.249	4.0	220735	STUDY_PAIR	n/a	wordpools/wordpool_EN.txt	SLIME	BANK	3	5	SLIME	n/a	0	3	[0, 0, 0]	n/a	0	0	0	n/a	n/a	0.0	0	0	0	PAL2	0	R1060M
426.283	0.25	223252	STUDY_ORIENT	n/a	n/a	CANE	GLOVE	4	2	CANE	n/a	0	3	[0, 0, 0]	n/a	0	0	0	n/a	n/a	0.0	0	0	0	PAL2	0	R1060M
427.217	4.0	223719	STUDY_PAIR	n/a	wordpools/wordpool_EN.txt	CANE	GLOVE	4	2	CANE	n/a	0	3	[0, 0, 0]	n/a	0	0	0	n/a	n/a	0.0	0	0	0	PAL2	0	R1060M
432.251	0.25	226235	STUDY_ORIENT	n/a	n/a	OAR	WAVE	5	3	OAR	n/a	0	3	[0, 0, 0]	n/a	0	0	0	n/a	n/a	0.0	0	0	0	PAL2	0	R1060M
433.084	4.0	226652	STUDY_PAIR	n/a	wordpools/wordpool_EN.txt	OAR	WAVE	5	3	OAR	n/a	0	3	[0, 0, 0]	n/a	0	0	0	n/a	n/a	0.0	0	0	0	PAL2	0	R1060M
438.102	0.25	229161	STUDY_ORIENT	n/a	n/a	BADGE	VASE	6	6	VASE	GLASS	0	3	[0, 0, 0]	n/a	0	0	0	n/a	n/a	0.0	0	0	0	PAL2	0	R1060M
438.937	4.0	229578	STUDY_PAIR	n/a	wordpools/wordpool_EN.txt	BADGE	VASE	6	6	VASE	GLASS	0	3	[0, 0, 0]	n/a	0	0	0	n/a	n/a	0.0	0	0	0	PAL2	0	R1060M
442.955	0.999	231587	START	n/a	n/a	n/a	n/a	-999	-999	n/a	n/a	-999	3	[-999, -999, -999]	n/a	0	0	0	n/a	n/a	0.0	0	0	0	PAL2	0	R1060M
443.954	0.016	232087	MATH_START	n/a	n/a	n/a	n/a	-999	-999	n/a	n/a	-999	3	[0, 0, 0]	n/a	0	0	0	n/a	n/a	0.0	0	0	0	PAL2	0	R1060M
443.97	4.852	232095	PROB	4.827	n/a	n/a	n/a	-999	-999	n/a	n/a	-999	3	[2, 3, 5]	10	0	0	0	n/a	n/a	0.0	0	0	0	PAL2	0	R1060M
448.822	3.084	234521	PROB	3.063	n/a	n/a	n/a	-999	-999	n/a	n/a	-999	3	[9, 3, 3]	15	0	0	0	n/a	n/a	0.0	0	0	0	PAL2	0	R1060M
451.906	2.533	236062	PROB	2.498	n/a	n/a	n/a	-999	-999	n/a	n/a	-999	3	[4, 4, 9]	17	0	0	0	n/a	n/a	0.0	0	0	0	PAL2	0	R1060M
454.439	3.6	237329	PROB	3.581	n/a	n/a	n/a	-999	-999	n/a	n/a	-999	3	[6, 8, 8]	26	0	0	0	n/a	n/a	0.0	0	0	0	PAL2	0	R1060M
458.039	3.051	239129	PROB	3.021	n/a	n/a	n/a	-999	-999	n/a	n/a	-999	3	[1, 9, 5]	12	0	0	0	n/a	n/a	0.0	0	0	0	PAL2	0	R1060M
461.09	8.506	240654	PROB	8.506	n/a	n/a	n/a	-999	-999	n/a	n/a	-999	3	[7, 6, 9]	22	0	0	0	n/a	n/a	0.0	0	0	0	PAL2	0	R1060M
469.596	0.012	244907	STOP	n/a	n/a	n/a	n/a	-999	-999	n/a	n/a	-999	3	[-999, -999, -999]	n/a	0	0	0	n/a	n/a	0.0	0	0	0	PAL2	0	R1060M
469.608	0.0	244913	MATH_END	n/a	n/a	n/a	n/a	-999	-999	n/a	n/a	-999	3	[0, 0, 0]	n/a	0	0	0	n/a	n/a	0.0	0	0	0	PAL2	0	R1060M
469.608	0.017	244913	TEST_START	n/a	n/a	n/a	n/a	-999	-999	n/a	n/a	-999	3	[0, 0, 0]	n/a	0	0	0	n/a	n/a	0.0	0	0	0	PAL2	0	R1060M
469.625	0.25	244921	TEST_ORIENT	n/a	n/a	BREAD	GLASS	1	1	GLASS	n/a	0	3	[0, 0, 0]	n/a	0	0	0	n/a	n/a	0.0	0	0	0	PAL2	0	R1060M
470.425	4.0	245321	TEST_PROBE	n/a	wordpools/wordpool_EN.txt	BREAD	GLASS	1	1	GLASS	n/a	0	3	[0, 0, 0]	n/a	0	0	0	n/a	n/a	0.0	0	0	0	PAL2	0	R1060M
470.426	5.01	245322	REC_START	n/a	n/a	n/a	n/a	1	-999	n/a	n/a	0	3	[0, 0, 0]	n/a	0	0	0	n/a	n/a	0.0	0	0	0	PAL2	0	R1060M
475.436	0.007	247827	REC_END	n/a	n/a	n/a	n/a	1	-999	n/a	n/a	-999	3	[0, 0, 0]	n/a	0	0	0	n/a	n/a	0.0	0	0	0	PAL2	0	R1060M
475.443	0.25	247830	TEST_ORIENT	n/a	n/a	CANE	GLOVE	4	2	CANE	n/a	0	3	[0, 0, 0]	n/a	0	0	0	n/a	n/a	0.0	0	0	0	PAL2	0	R1060M
476.243	4.0	248230	TEST_PROBE	n/a	wordpools/wordpool_EN.txt	CANE	GLOVE	4	2	CANE	n/a	0	3	[0, 0, 0]	n/a	0	0	0	n/a	n/a	0.0	0	0	0	PAL2	0	R1060M
476.244	5.015	248231	REC_START	n/a	n/a	n/a	n/a	4	-999	n/a	n/a	0	3	[0, 0, 0]	n/a	0	0	0	n/a	n/a	0.0	0	0	0	PAL2	0	R1060M
481.259	0.001	250738	REC_EVENT	5.015	n/a	CANE	GLOVE	4	2	CANE	<>	0	3	[0, 0, 0]	n/a	0	0	0	n/a	n/a	0.0	0	0	0	PAL2	0	R1060M
481.26	0.017	250739	REC_END	n/a	n/a	n/a	n/a	4	-999	n/a	n/a	-999	3	[0, 0, 0]	n/a	0	0	0	n/a	n/a	0.0	0	0	0	PAL2	0	R1060M
481.277	0.25	250747	TEST_ORIENT	n/a	n/a	OAR	WAVE	5	3	OAR	n/a	0	3	[0, 0, 0]	n/a	0	0	0	n/a	n/a	0.0	0	0	0	PAL2	0	R1060M
482.094	4.0	251156	TEST_PROBE	n/a	wordpools/wordpool_EN.txt	OAR	WAVE	5	3	OAR	n/a	0	3	[0, 0, 0]	n/a	0	0	0	n/a	n/a	0.0	0	0	0	PAL2	0	R1060M
482.094	5.015	251156	REC_START	n/a	n/a	n/a	n/a	5	-999	n/a	n/a	0	3	[0, 0, 0]	n/a	0	0	0	n/a	n/a	0.0	0	0	0	PAL2	0	R1060M
487.109	0.003	253663	REC_EVENT	5.015	n/a	OAR	WAVE	5	3	OAR	<>	0	3	[0, 0, 0]	n/a	0	0	0	n/a	n/a	0.0	0	0	0	PAL2	0	R1060M
487.112	0.016	253664	REC_END	n/a	n/a	n/a	n/a	5	-999	n/a	n/a	-999	3	[0, 0, 0]	n/a	0	0	0	n/a	n/a	0.0	0	0	0	PAL2	0	R1060M
487.128	0.25	253672	TEST_ORIENT	n/a	n/a	FILM	GEESE	2	4	GEESE	n/a	0	3	[0, 0, 0]	n/a	0	0	0	n/a	n/a	0.0	0	0	0	PAL2	0	R1060M
488.162	4.0	254189	TEST_PROBE	n/a	wordpools/wordpool_EN.txt	FILM	GEESE	2	4	GEESE	n/a	0	3	[0, 0, 0]	n/a	0	0	0	n/a	n/a	0.0	0	0	0	PAL2	0	R1060M
488.163	5.021	254190	REC_START	n/a	n/a	n/a	n/a	2	-999	n/a	n/a	0	3	[0, 0, 0]	n/a	0	0	0	n/a	n/a	0.0	0	0	0	PAL2	0	R1060M
493.184	0.005	256700	REC_EVENT	5.021	n/a	FILM	GEESE	2	4	GEESE	<>	0	3	[0, 0, 0]	n/a	0	0	0	n/a	n/a	0.0	0	0	0	PAL2	0	R1060M
493.189	0.024	256703	REC_END	n/a	n/a	n/a	n/a	2	-999	n/a	n/a	-999	3	[0, 0, 0]	n/a	0	0	0	n/a	n/a	0.0	0	0	0	PAL2	0	R1060M
493.213	0.25	256715	TEST_ORIENT	n/a	n/a	SLIME	BANK	3	5	SLIME	n/a	0	3	[0, 0, 0]	n/a	0	0	0	n/a	n/a	0.0	0	0	0	PAL2	0	R1060M
494.163	4.0	257190	TEST_PROBE	n/a	wordpools/wordpool_EN.txt	SLIME	BANK	3	5	SLIME	n/a	0	3	[0, 0, 0]	n/a	0	0	0	n/a	n/a	0.0	0	0	0	PAL2	0	R1060M
494.164	5.009	257190	REC_START	n/a	n/a	n/a	n/a	3	-999	n/a	n/a	0	3	[0, 0, 0]	n/a	0	0	0	n/a	n/a	0.0	0	0	0	PAL2	0	R1060M
499.173	0.001	259695	REC_EVENT	5.009	n/a	SLIME	BANK	3	5	SLIME	<>	0	3	[0, 0, 0]	n/a	0	0	0	n/a	n/a	0.0	0	0	0	PAL2	0	R1060M
499.174	0.024	259695	REC_END	n/a	n/a	n/a	n/a	3	-999	n/a	n/a	-999	3	[0, 0, 0]	n/a	0	0	0	n/a	n/a	0.0	0	0	0	PAL2	0	R1060M
499.198	0.25	259707	TEST_ORIENT	n/a	n/a	BADGE	VASE	6	6	VASE	GLASS	0	3	[0, 0, 0]	n/a	0	0	0	n/a	n/a	0.0	0	0	0	PAL2	0	R1060M
500.198	4.0	260207	TEST_PROBE	n/a	wordpools/wordpool_EN.txt	BADGE	VASE	6	6	VASE	GLASS	0	3	[0, 0, 0]	n/a	0	0	0	n/a	n/a	0.0	0	0	0	PAL2	0	R1060M
500.198	3.151	260207	REC_START	n/a	n/a	n/a	n/a	6	-999	n/a	GLASS	0	3	[0, 0, 0]	n/a	0	0	0	n/a	n/a	0.0	0	0	0	PAL2	0	R1060M
503.349	1.866	261783	REC_EVENT	3.151	n/a	BADGE	VASE	6	6	VASE	GLASS	0	3	[0, 0, 0]	n/a	0	0	0	n/a	n/a	0.0	0	0	0	PAL2	0	R1060M
505.215	4.59	262715	REC_END	n/a	n/a	n/a	n/a	6	-999	n/a	n/a	-999	3	[0, 0, 0]	n/a	0	0	0	n/a	n/a	0.0	0	0	0	PAL2	0	R1060M
509.805	10.447	265010	ENCODING_START	n/a	n/a	n/a	n/a	0	-999	n/a	n/a	-999	4	[0, 0, 0]	n/a	0	1	0	n/a	n/a	0.0	0	0	0	PAL2	0	R1060M
520.252	0.25	270234	STUDY_ORIENT	n/a	n/a	FLEA	FORK	1	1	FLEA	FLOOD	0	4	[0, 0, 0]	n/a	0	1	0	n/a	n/a	0.0	0	0	0	PAL2	0	R1060M
521.119	4.0	270667	STUDY_PAIR	n/a	wordpools/wordpool_EN.txt	FLEA	FORK	1	1	FLEA	FLOOD	0	4	[0, 0, 0]	n/a	0	1	0	n/a	n/a	0.0	0	0	0	PAL2	0	R1060M
526.153	0.25	273184	STUDY_ORIENT	n/a	n/a	WORLD	LOCK	2	2	WORLD	n/a	0	4	[0, 0, 0]	n/a	0	1	0	n/a	n/a	0.0	0	0	0	PAL2	0	R1060M
526.742	4.6	273478	STIM_ON	n/a	n/a	WORLD	LOCK	2	2	WORLD	n/a	0	4	[0, 0, 0]	n/a	1	1	4600	RFG10	RFG11	3000.0	50	230	300	PAL2	0	R1060M
526.954	4.0	273584	STUDY_PAIR	n/a	wordpools/wordpool_EN.txt	WORLD	LOCK	2	2	WORLD	n/a	0	4	[0, 0, 0]	n/a	1	1	4600	RFG10	RFG11	3000.0	50	230	300	PAL2	0	R1060M
531.971	0.25	276093	STUDY_ORIENT	n/a	n/a	WALL	TRUCK	3	5	TRUCK	n/a	0	4	[0, 0, 0]	n/a	0	1	0	n/a	n/a	0.0	0	0	0	PAL2	0	R1060M
532.822	4.0	276518	STUDY_PAIR	n/a	wordpools/wordpool_EN.txt	WALL	TRUCK	3	5	TRUCK	n/a	0	4	[0, 0, 0]	n/a	0	1	0	n/a	n/a	0.0	0	0	0	PAL2	0	R1060M
537.856	0.25	279035	STUDY_ORIENT	n/a	n/a	SPOON	PEAR	4	6	SPOON	PEAR	1	4	[0, 0, 0]	n/a	0	1	0	n/a	n/a	0.0	0	0	0	PAL2	0	R1060M
538.446	4.6	279330	STIM_ON	n/a	n/a	SPOON	PEAR	4	6	SPOON	PEAR	1	4	[0, 0, 0]	n/a	1	1	4600	RFG10	RFG11	3000.0	50	230	300	PAL2	0	R1060M
538.655	4.0	279435	STUDY_PAIR	n/a	wordpools/wordpool_EN.txt	SPOON	PEAR	4	6	SPOON	PEAR	1	4	[0, 0, 0]	n/a	1	1	4600	RFG10	RFG11	3000.0	50	230	300	PAL2	0	R1060M
543.673	0.25	281943	STUDY_ORIENT	n/a	n/a	TOE	SLUSH	5	3	TOE	n/a	0	4	[0, 0, 0]	n/a	0	1	0	n/a	n/a	0.0	0	0	0	PAL2	0	R1060M
544.673	4.0	282443	STUDY_PAIR	n/a	wordpools/wordpool_EN.txt	TOE	SLUSH	5	3	TOE	n/a	0	4	[0, 0, 0]	n/a	0	1	0	n/a	n/a	0.0	0	0	0	PAL2	0	R1060M
549.691	0.25	284952	STUDY_ORIENT	n/a	n/a	CHAIR	PARK	6	4	PARK	n/a	0	4	[0, 0, 0]	n/a	0	1	0	n/a	n/a	0.0	0	0	0	PAL2	0	R1060M
550.426	4.6	285320	STIM_ON	n/a	n/a	CHAIR	PARK	6	4	PARK	n/a	0	4	[0, 0, 0]	n/a	1	1	4600	RFG10	RFG11	3000.0	50	230	300	PAL2	0	R1060M
550.641	4.0	285427	STUDY_PAIR	n/a	wordpools/wordpool_EN.txt	CHAIR	PARK	6	4	PARK	n/a	0	4	[0, 0, 0]	n/a	1	1	4600	RFG10	RFG11	3000.0	50	230	300	PAL2	0	R1060M
554.642	1.0	287428	START	n/a	n/a	n/a	n/a	-999	-999	n/a	n/a	-999	4	[-999, -999, -999]	n/a	0	1	0	n/a	n/a	0.0	0	0	0	PAL2	0	R1060M
555.642	0.017	287928	MATH_START	n/a	n/a	n/a	n/a	-999	-999	n/a	n/a	-999	4	[0, 0, 0]	n/a	0	1	0	n/a	n/a	0.0	0	0	0	PAL2	0	R1060M
555.659	3.317	287936	PROB	3.298	n/a	n/a	n/a	-999	-999	n/a	n/a	-999	4	[2, 7, 1]	10	0	1	0	n/a	n/a	0.0	0	0	0	PAL2	0	R1060M
558.976	2.968	289595	PROB	2.941	n/a	n/a	n/a	-999	-999	n/a	n/a	-999	4	[7, 6, 4]	17	0	1	0	n/a	n/a	0.0	0	0	0	PAL2	0	R1060M
561.944	2.033	291078	PROB	2.013	n/a	n/a	n/a	-999	-999	n/a	n/a	-999	4	[7, 4, 1]	12	0	1	0	n/a	n/a	0.0	0	0	0	PAL2	0	R1060M
563.977	1.951	292095	PROB	1.916	n/a	n/a	n/a	-999	-999	n/a	n/a	-999	4	[1, 1, 9]	11	0	1	0	n/a	n/a	0.0	0	0	0	PAL2	0	R1060M
565.928	2.733	293070	PROB	2.708	n/a	n/a	n/a	-999	-999	n/a	n/a	-999	4	[5, 4, 6]	15	0	1	0	n/a	n/a	0.0	0	0	0	PAL2	0	R1060M
568.661	3.518	294437	PROB	3.487	n/a	n/a	n/a	-999	-999	n/a	n/a	-999	4	[9, 3, 9]	21	0	1	0	n/a	n/a	0.0	0	0	0	PAL2	0	R1060M
572.179	4.001	296196	PROB	4.001	n/a	n/a	n/a	-999	-999	n/a	n/a	-999	4	[8, 9, 6]	21	0	1	0	n/a	n/a	0.0	0	0	0	PAL2	0	R1060M
576.18	0.016	298196	STOP	n/a	n/a	n/a	n/a	-999	-999	n/a	n/a	-999	4	[-999, -999, -999]	n/a	0	1	0	n/a	n/a	0.0	0	0	0	PAL2	0	R1060M
576.196	0.0	298204	MATH_END	n/a	n/a	n/a	n/a	-999	-999	n/a	n/a	-999	4	[0, 0, 0]	n/a	0	1	0	n/a	n/a	0.0	0	0	0	PAL2	0	R1060M
576.196	0.017	298204	TEST_START	n/a	n/a	n/a	n/a	-999	-999	n/a	n/a	-999	4	[0, 0, 0]	n/a	0	1	0	n/a	n/a	0.0	0	0	0	PAL2	0	R1060M
576.213	0.25	298213	TEST_ORIENT	n/a	n/a	FLEA	FORK	1	1	FLEA	FLOOD	0	4	[0, 0, 0]	n/a	0	1	0	n/a	n/a	0.0	0	0	0	PAL2	0	R1060M
577.18	4.0	298696	TEST_PROBE	n/a	wordpools/wordpool_EN.txt	FLEA	FORK	1	1	FLEA	FLOOD	0	4	[0, 0, 0]	n/a	0	1	0	n/a	n/a	0.0	0	0	0	PAL2	0	R1060M
577.18	2.99	298696	REC_START	n/a	n/a	n/a	n/a	1	-999	n/a	FLOOD	0	4	[0, 0, 0]	n/a	0	1	0	n/a	n/a	0.0	0	0	0	PAL2	0	R1060M
580.17	2.027	300191	REC_EVENT	2.99	n/a	FLEA	FORK	1	1	FLEA	FLOOD	0	4	[0, 0, 0]	n/a	0	1	0	n/a	n/a	0.0	0	0	0	PAL2	0	R1060M
582.197	0.017	301204	REC_END	n/a	n/a	n/a	n/a	1	-999	n/a	n/a	-999	4	[0, 0, 0]	n/a	0	1	0	n/a	n/a	0.0	0	0	0	PAL2	0	R1060M
582.214	0.25	301213	TEST_ORIENT	n/a	n/a	WORLD	LOCK	2	2	WORLD	n/a	0	4	[0, 0, 0]	n/a	0	1	0	n/a	n/a	0.0	0	0	0	PAL2	0	R1060M
583.131	4.0	301671	TEST_PROBE	n/a	wordpools/wordpool_EN.txt	WORLD	LOCK	2	2	WORLD	n/a	0	4	[0, 0, 0]	n/a	0	1	0	n/a	n/a	0.0	0	0	0	PAL2	0	R1060M
583.131	5.015	301671	REC_START	n/a	n/a	n/a	n/a	2	-999	n/a	n/a	0	4	[0, 0, 0]	n/a	0	1	0	n/a	n/a	0.0	0	0	0	PAL2	0	R1060M
588.146	0.002	304179	REC_EVENT	5.015	n/a	WORLD	LOCK	2	2	WORLD	<>	0	4	[0, 0, 0]	n/a	0	1	0	n/a	n/a	0.0	0	0	0	PAL2	0	R1060M
588.148	0.017	304180	REC_END	n/a	n/a	n/a	n/a	2	-999	n/a	n/a	-999	4	[0, 0, 0]	n/a	0	1	0	n/a	n/a	0.0	0	0	0	PAL2	0	R1060M
588.165	0.25	304188	TEST_ORIENT	n/a	n/a	TOE	SLUSH	5	3	TOE	n/a	0	4	[0, 0, 0]	n/a	0	1	0	n/a	n/a	0.0	0	0	0	PAL2	0	R1060M
589.015	4.0	304613	TEST_PROBE	n/a	wordpools/wordpool_EN.txt	TOE	SLUSH	5	3	TOE	n/a	0	4	[0, 0, 0]	n/a	0	1	0	n/a	n/a	0.0	0	0	0	PAL2	0	R1060M
589.016	5.009	304614	REC_START	n/a	n/a	n/a	n/a	5	-999	n/a	n/a	0	4	[0, 0, 0]	n/a	0	1	0	n/a	n/a	0.0	0	0	0	PAL2	0	R1060M
594.025	0.0	307118	REC_EVENT	5.009	n/a	TOE	SLUSH	5	3	TOE	<>	0	4	[0, 0, 0]	n/a	0	1	0	n/a	n/a	0.0	0	0	0	PAL2	0	R1060M
594.025	0.008	307118	REC_END	n/a	n/a	n/a	n/a	5	-999	n/a	n/a	-999	4	[0, 0, 0]	n/a	0	1	0	n/a	n/a	0.0	0	0	0	PAL2	0	R1060M
594.033	0.25	307122	TEST_ORIENT	n/a	n/a	CHAIR	PARK	6	4	PARK	n/a	0	4	[0, 0, 0]	n/a	0	1	0	n/a	n/a	0.0	0	0	0	PAL2	0	R1060M
594.918	4.0	307565	TEST_PROBE	n/a	wordpools/wordpool_EN.txt	CHAIR	PARK	6	4	PARK	n/a	0	4	[0, 0, 0]	n/a	0	1	0	n/a	n/a	0.0	0	0	0	PAL2	0	R1060M
594.918	5.015	307565	REC_START	n/a	n/a	n/a	n/a	6	-999	n/a	n/a	0	4	[0, 0, 0]	n/a	0	1	0	n/a	n/a	0.0	0	0	0	PAL2	0	R1060M
599.933	0.002	310072	REC_EVENT	5.015	n/a	CHAIR	PARK	6	4	PARK	<>	0	4	[0, 0, 0]	n/a	0	1	0	n/a	n/a	0.0	0	0	0	PAL2	0	R1060M
599.935	0.017	310073	REC_END	n/a	n/a	n/a	n/a	6	-999	n/a	n/a	-999	4	[0, 0, 0]	n/a	0	1	0	n/a	n/a	0.0	0	0	0	PAL2	0	R1060M
599.952	0.25	310081	TEST_ORIENT	n/a	n/a	WALL	TRUCK	3	5	TRUCK	n/a	0	4	[0, 0, 0]	n/a	0	1	0	n/a	n/a	0.0	0	0	0	PAL2	0	R1060M
600.984	4.0	310597	TEST_PROBE	n/a	wordpools/wordpool_EN.txt	WALL	TRUCK	3	5	TRUCK	n/a	0	4	[0, 0, 0]	n/a	0	1	0	n/a	n/a	0.0	0	0	0	PAL2	0	R1060M
600.985	5.009	310598	REC_START	n/a	n/a	n/a	n/a	3	-999	n/a	n/a	0	4	[0, 0, 0]	n/a	0	1	0	n/a	n/a	0.0	0	0	0	PAL2	0	R1060M
605.994	0.001	313102	REC_EVENT	5.009	n/a	WALL	TRUCK	3	5	TRUCK	<>	0	4	[0, 0, 0]	n/a	0	1	0	n/a	n/a	0.0	0	0	0	PAL2	0	R1060M
605.995	0.007	313103	REC_END	n/a	n/a	n/a	n/a	3	-999	n/a	n/a	-999	4	[0, 0, 0]	n/a	0	1	0	n/a	n/a	0.0	0	0	0	PAL2	0	R1060M
606.002	0.25	313106	TEST_ORIENT	n/a	n/a	SPOON	PEAR	4	6	SPOON	PEAR	1	4	[0, 0, 0]	n/a	0	1	0	n/a	n/a	0.0	0	0	0	PAL2	0	R1060M
606.903	4.0	313557	TEST_PROBE	n/a	wordpools/wordpool_EN.txt	SPOON	PEAR	4	6	SPOON	PEAR	1	4	[0, 0, 0]	n/a	0	1	0	n/a	n/a	0.0	0	0	0	PAL2	0	R1060M
606.904	1.21	313557	REC_START	n/a	n/a	n/a	n/a	4	-999	n/a	PEAR	1	4	[0, 0, 0]	n/a	0	1	0	n/a	n/a	0.0	0	0	0	PAL2	0	R1060M
608.114	3.8	314162	REC_EVENT	1.21	n/a	SPOON	PEAR	4	6	SPOON	PEAR	1	4	[0, 0, 0]	n/a	0	1	0	n/a	n/a	0.0	0	0	0	PAL2	0	R1060M
611.914	2.762	316062	REC_END	n/a	n/a	n/a	n/a	4	-999	n/a	n/a	-999	4	[0, 0, 0]	n/a	0	1	0	n/a	n/a	0.0	0	0	0	PAL2	0	R1060M
614.676	10.447	317443	ENCODING_START	n/a	n/a	n/a	n/a	0	-999	n/a	n/a	-999	5	[0, 0, 0]	n/a	0	1	0	n/a	n/a	0.0	0	0	0	PAL2	0	R1060M
625.123	0.25	322666	STUDY_ORIENT	n/a	n/a	HORSE	PEN	1	5	HORSE	n/a	0	5	[0, 0, 0]	n/a	0	1	0	n/a	n/a	0.0	0	0	0	PAL2	0	R1060M
625.829	4.6	323019	STIM_ON	n/a	n/a	HORSE	PEN	1	5	HORSE	n/a	0	5	[0, 0, 0]	n/a	1	1	4600	RFG10	RFG11	3000.0	50	230	300	PAL2	0	R1060M
626.039	4.0	323124	STUDY_PAIR	n/a	wordpools/wordpool_EN.txt	HORSE	PEN	1	5	HORSE	n/a	0	5	[0, 0, 0]	n/a	1	1	4600	RFG10	RFG11	3000.0	50	230	300	PAL2	0	R1060M
631.057	0.25	325633	STUDY_ORIENT	n/a	n/a	PASTE	CLIFF	2	2	PASTE	n/a	0	5	[0, 0, 0]	n/a	0	1	0	n/a	n/a	0.0	0	0	0	PAL2	0	R1060M
631.858	4.0	326034	STUDY_PAIR	n/a	wordpools/wordpool_EN.txt	PASTE	CLIFF	2	2	PASTE	n/a	0	5	[0, 0, 0]	n/a	0	1	0	n/a	n/a	0.0	0	0	0	PAL2	0	R1060M
636.876	0.25	328542	STUDY_ORIENT	n/a	n/a	HORN	LAMB	3	1	LAMB	n/a	0	5	[0, 0, 0]	n/a	0	1	0	n/a	n/a	0.0	0	0	0	PAL2	0	R1060M
637.687	4.6	328948	STIM_ON	n/a	n/a	HORN	LAMB	3	1	LAMB	n/a	0	5	[0, 0, 0]	n/a	1	1	4600	RFG10	RFG11	3000.0	50	230	300	PAL2	0	R1060M
637.893	4.0	329051	STUDY_PAIR	n/a	wordpools/wordpool_EN.txt	HORN	LAMB	3	1	LAMB	n/a	0	5	[0, 0, 0]	n/a	1	1	4600	RFG10	RFG11	3000.0	50	230	300	PAL2	0	R1060M
642.927	0.25	331568	STUDY_ORIENT	n/a	n/a	TENT	BAND	4	6	BAND	n/a	0	5	[0, 0, 0]	n/a	0	1	0	n/a	n/a	0.0	0	0	0	PAL2	0	R1060M
643.877	4.0	332043	STUDY_PAIR	n/a	wordpools/wordpool_EN.txt	TENT	BAND	4	6	BAND	n/a	0	5	[0, 0, 0]	n/a	0	1	0	n/a	n/a	0.0	0	0	0	PAL2	0	R1060M
648.895	0.25	334552	STUDY_ORIENT	n/a	n/a	FACE	ANT	5	3	FACE	n/a	0	5	[0, 0, 0]	n/a	0	1	0	n/a	n/a	0.0	0	0	0	PAL2	0	R1060M
649.675	4.6	334942	STIM_ON	n/a	n/a	FACE	ANT	5	3	FACE	n/a	0	5	[0, 0, 0]	n/a	1	1	4600	RFG10	RFG11	3000.0	50	230	300	PAL2	0	R1060M
649.878	4.0	335043	STUDY_PAIR	n/a	wordpools/wordpool_EN.txt	FACE	ANT	5	3	FACE	n/a	0	5	[0, 0, 0]	n/a	1	1	4600	RFG10	RFG11	3000.0	50	230	300	PAL2	0	R1060M
654.896	0.25	337552	STUDY_ORIENT	n/a	n/a	TOOL	STONE	6	4	STONE	n/a	0	5	[0, 0, 0]	n/a	0	1	0	n/a	n/a	0.0	0	0	0	PAL2	0	R1060M
655.88	4.0	338044	STUDY_PAIR	n/a	wordpools/wordpool_EN.txt	TOOL	STONE	6	4	STONE	n/a	0	5	[0, 0, 0]	n/a	0	1	0	n/a	n/a	0.0	0	0	0	PAL2	0	R1060M
659.898	0.999	340053	START	n/a	n/a	n/a	n/a	-999	-999	n/a	n/a	-999	5	[-999, -999, -999]	n/a	0	1	0	n/a	n/a	0.0	0	0	0	PAL2	0	R1060M
660.897	0.017	340552	MATH_START	n/a	n/a	n/a	n/a	-999	-999	n/a	n/a	-999	5	[0, 0, 0]	n/a	0	1	0	n/a	n/a	0.0	0	0	0	PAL2	0	R1060M
660.914	3.034	340561	PROB	3.011	n/a	n/a	n/a	-999	-999	n/a	n/a	-999	5	[1, 8, 9]	18	0	1	0	n/a	n/a	0.0	0	0	0	PAL2	0	R1060M
663.948	2.766	342078	PROB	2.736	n/a	n/a	n/a	-999	-999	n/a	n/a	-999	5	[2, 6, 2]	10	0	1	0	n/a	n/a	0.0	0	0	0	PAL2	0	R1060M
666.714	2.684	343461	PROB	2.65	n/a	n/a	n/a	-999	-999	n/a	n/a	-999	5	[5, 5, 7]	17	0	1	0	n/a	n/a	0.0	0	0	0	PAL2	0	R1060M
669.398	3.667	344803	PROB	3.638	n/a	n/a	n/a	-999	-999	n/a	n/a	-999	5	[6, 1, 8]	15	0	1	0	n/a	n/a	0.0	0	0	0	PAL2	0	R1060M
673.065	2.869	346636	PROB	2.844	n/a	n/a	n/a	-999	-999	n/a	n/a	-999	5	[3, 8, 9]	21	0	1	0	n/a	n/a	0.0	0	0	0	PAL2	0	R1060M
675.934	2.716	348070	PROB	2.694	n/a	n/a	n/a	-999	-999	n/a	n/a	-999	5	[1, 9, 9]	19	0	1	0	n/a	n/a	0.0	0	0	0	PAL2	0	R1060M
678.65	3.778	349428	PROB	3.778	n/a	n/a	n/a	-999	-999	n/a	n/a	-999	5	[3, 6, 1]	10	0	1	0	n/a	n/a	0.0	0	0	0	PAL2	0	R1060M
682.428	0.006	351317	STOP	n/a	n/a	n/a	n/a	-999	-999	n/a	n/a	-999	5	[-999, -999, -999]	n/a	0	1	0	n/a	n/a	0.0	0	0	0	PAL2	0	R1060M
682.434	0.0	351320	MATH_END	n/a	n/a	n/a	n/a	-999	-999	n/a	n/a	-999	5	[0, 0, 0]	n/a	0	1	0	n/a	n/a	0.0	0	0	0	PAL2	0	R1060M
682.434	0.016	351320	TEST_START	n/a	n/a	n/a	n/a	-999	-999	n/a	n/a	-999	5	[0, 0, 0]	n/a	0	1	0	n/a	n/a	0.0	0	0	0	PAL2	0	R1060M
682.45	0.25	351328	TEST_ORIENT	n/a	n/a	HORN	LAMB	3	1	LAMB	n/a	0	5	[0, 0, 0]	n/a	0	1	0	n/a	n/a	0.0	0	0	0	PAL2	0	R1060M
683.417	4.0	351812	TEST_PROBE	n/a	wordpools/wordpool_EN.txt	HORN	LAMB	3	1	LAMB	n/a	0	5	[0, 0, 0]	n/a	0	1	0	n/a	n/a	0.0	0	0	0	PAL2	0	R1060M
683.418	5.009	351812	REC_START	n/a	n/a	n/a	n/a	3	-999	n/a	n/a	0	5	[0, 0, 0]	n/a	0	1	0	n/a	n/a	0.0	0	0	0	PAL2	0	R1060M
688.427	0.0	354316	REC_EVENT	5.009	n/a	HORN	LAMB	3	1	LAMB	<>	0	5	[0, 0, 0]	n/a	0	1	0	n/a	n/a	0.0	0	0	0	PAL2	0	R1060M
688.427	0.008	354316	REC_END	n/a	n/a	n/a	n/a	3	-999	n/a	n/a	-999	5	[0, 0, 0]	n/a	0	1	0	n/a	n/a	0.0	0	0	0	PAL2	0	R1060M
688.435	0.25	354320	TEST_ORIENT	n/a	n/a	PASTE	CLIFF	2	2	PASTE	n/a	0	5	[0, 0, 0]	n/a	0	1	0	n/a	n/a	0.0	0	0	0	PAL2	0	R1060M
689.335	4.0	354770	TEST_PROBE	n/a	wordpools/wordpool_EN.txt	PASTE	CLIFF	2	2	PASTE	n/a	0	5	[0, 0, 0]	n/a	0	1	0	n/a	n/a	0.0	0	0	0	PAL2	0	R1060M
689.336	5.009	354771	REC_START	n/a	n/a	n/a	n/a	2	-999	n/a	n/a	0	5	[0, 0, 0]	n/a	0	1	0	n/a	n/a	0.0	0	0	0	PAL2	0	R1060M
694.345	0.001	357275	REC_EVENT	5.009	n/a	PASTE	CLIFF	2	2	PASTE	<>	0	5	[0, 0, 0]	n/a	0	1	0	n/a	n/a	0.0	0	0	0	PAL2	0	R1060M
694.346	0.007	357276	REC_END	n/a	n/a	n/a	n/a	2	-999	n/a	n/a	-999	5	[0, 0, 0]	n/a	0	1	0	n/a	n/a	0.0	0	0	0	PAL2	0	R1060M
694.353	0.25	357279	TEST_ORIENT	n/a	n/a	FACE	ANT	5	3	FACE	n/a	0	5	[0, 0, 0]	n/a	0	1	0	n/a	n/a	0.0	0	0	0	PAL2	0	R1060M
695.337	4.0	357771	TEST_PROBE	n/a	wordpools/wordpool_EN.txt	FACE	ANT	5	3	FACE	n/a	0	5	[0, 0, 0]	n/a	0	1	0	n/a	n/a	0.0	0	0	0	PAL2	0	R1060M
695.337	5.015	357771	REC_START	n/a	n/a	n/a	n/a	5	-999	n/a	n/a	0	5	[0, 0, 0]	n/a	0	1	0	n/a	n/a	0.0	0	0	0	PAL2	0	R1060M
700.352	0.002	360279	REC_EVENT	5.015	n/a	FACE	ANT	5	3	FACE	<>	0	5	[0, 0, 0]	n/a	0	1	0	n/a	n/a	0.0	0	0	0	PAL2	0	R1060M
700.354	0.017	360280	REC_END	n/a	n/a	n/a	n/a	5	-999	n/a	n/a	-999	5	[0, 0, 0]	n/a	0	1	0	n/a	n/a	0.0	0	0	0	PAL2	0	R1060M
700.371	0.25	360288	TEST_ORIENT	n/a	n/a	TOOL	STONE	6	4	STONE	n/a	0	5	[0, 0, 0]	n/a	0	1	0	n/a	n/a	0.0	0	0	0	PAL2	0	R1060M
701.171	4.0	360688	TEST_PROBE	n/a	wordpools/wordpool_EN.txt	TOOL	STONE	6	4	STONE	n/a	0	5	[0, 0, 0]	n/a	0	1	0	n/a	n/a	0.0	0	0	0	PAL2	0	R1060M
701.172	5.015	360689	REC_START	n/a	n/a	n/a	n/a	6	-999	n/a	n/a	0	5	[0, 0, 0]	n/a	0	1	0	n/a	n/a	0.0	0	0	0	PAL2	0	R1060M
706.187	0.001	363196	REC_EVENT	5.015	n/a	TOOL	STONE	6	4	STONE	<>	0	5	[0, 0, 0]	n/a	0	1	0	n/a	n/a	0.0	0	0	0	PAL2	0	R1060M
706.188	0.017	363197	REC_END	n/a	n/a	n/a	n/a	6	-999	n/a	n/a	-999	5	[0, 0, 0]	n/a	0	1	0	n/a	n/a	0.0	0	0	0	PAL2	0	R1060M
706.205	0.25	363205	TEST_ORIENT	n/a	n/a	HORSE	PEN	1	5	HORSE	n/a	0	5	[0, 0, 0]	n/a	0	1	0	n/a	n/a	0.0	0	0	0	PAL2	0	R1060M
707.056	4.0	363630	TEST_PROBE	n/a	wordpools/wordpool_EN.txt	HORSE	PEN	1	5	HORSE	n/a	0	5	[0, 0, 0]	n/a	0	1	0	n/a	n/a	0.0	0	0	0	PAL2	0	R1060M
707.056	5.017	363630	REC_START	n/a	n/a	n/a	n/a	1	-999	n/a	n/a	0	5	[0, 0, 0]	n/a	0	1	0	n/a	n/a	0.0	0	0	0	PAL2	0	R1060M
712.073	0.004	366139	REC_END	n/a	n/a	n/a	n/a	1	-999	n/a	n/a	-999	5	[0, 0, 0]	n/a	0	1	0	n/a	n/a	0.0	0	0	0	PAL2	0	R1060M
712.077	0.013	366141	REC_EVENT	5.021	n/a	HORSE	PEN	1	5	HORSE	<>	0	5	[0, 0, 0]	n/a	0	1	0	n/a	n/a	0.0	0	0	0	PAL2	0	R1060M
712.09	0.25	366147	TEST_ORIENT	n/a	n/a	TENT	BAND	4	6	BAND	n/a	0	5	[0, 0, 0]	n/a	0	1	0	n/a	n/a	0.0	0	0	0	PAL2	0	R1060M
712.958	4.0	366581	TEST_PROBE	n/a	wordpools/wordpool_EN.txt	TENT	BAND	4	6	BAND	n/a	0	5	[0, 0, 0]	n/a	0	1	0	n/a	n/a	0.0	0	0	0	PAL2	0	R1060M
712.958	5.026	366581	REC_START	n/a	n/a	n/a	n/a	4	-999	n/a	n/a	0	5	[0, 0, 0]	n/a	0	1	0	n/a	n/a	0.0	0	0	0	PAL2	0	R1060M
717.984	0.001	369094	REC_END	n/a	n/a	n/a	n/a	4	-999	n/a	n/a	-999	5	[0, 0, 0]	n/a	0	1	0	n/a	n/a	0.0	0	0	0	PAL2	0	R1060M
717.985	31.299	369095	REC_EVENT	5.027	n/a	TENT	BAND	4	6	BAND	<>	0	5	[0, 0, 0]	n/a	0	1	0	n/a	n/a	0.0	0	0	0	PAL2	0	R1060M
749.284	10.449	384743	ENCODING_START	n/a	n/a	n/a	n/a	0	-999	n/a	n/a	-999	6	[0, 0, 0]	n/a	0	1	0	n/a	n/a	0.0	0	0	0	PAL2	0	R1060M
759.733	0.25	389968	STUDY_ORIENT	n/a	n/a	FOAM	CLOTH	1	5	FOAM	n/a	0	6	[0, 0, 0]	n/a	0	1	0	n/a	n/a	0.0	0	0	0	PAL2	0	R1060M
760.733	4.0	390468	STUDY_PAIR	n/a	wordpools/wordpool_EN.txt	FOAM	CLOTH	1	5	FOAM	n/a	0	6	[0, 0, 0]	n/a	0	1	0	n/a	n/a	0.0	0	0	0	PAL2	0	R1060M
765.767	0.25	392984	STUDY_ORIENT	n/a	n/a	CAR	ROCK	2	2	CAR	n/a	0	6	[0, 0, 0]	n/a	0	1	0	n/a	n/a	0.0	0	0	0	PAL2	0	R1060M
766.355	4.6	393278	STIM_ON	n/a	n/a	CAR	ROCK	2	2	CAR	n/a	0	6	[0, 0, 0]	n/a	1	1	4600	RFG10	RFG11	3000.0	50	230	300	PAL2	0	R1060M
766.567	4.0	393384	STUDY_PAIR	n/a	wordpools/wordpool_EN.txt	CAR	ROCK	2	2	CAR	n/a	0	6	[0, 0, 0]	n/a	1	1	4600	RFG10	RFG11	3000.0	50	230	300	PAL2	0	R1060M
771.585	0.25	395893	STUDY_ORIENT	n/a	n/a	FUDGE	WEB	3	1	FUDGE	n/a	0	6	[0, 0, 0]	n/a	0	1	0	n/a	n/a	0.0	0	0	0	PAL2	0	R1060M
772.569	4.0	396385	STUDY_PAIR	n/a	wordpools/wordpool_EN.txt	FUDGE	WEB	3	1	FUDGE	n/a	0	6	[0, 0, 0]	n/a	0	1	0	n/a	n/a	0.0	0	0	0	PAL2	0	R1060M
777.603	0.25	398902	STUDY_ORIENT	n/a	n/a	CHALK	KEY	4	4	KEY	n/a	0	6	[0, 0, 0]	n/a	0	1	0	n/a	n/a	0.0	0	0	0	PAL2	0	R1060M
778.213	4.6	399207	STIM_ON	n/a	n/a	CHALK	KEY	4	4	KEY	n/a	0	6	[0, 0, 0]	n/a	1	1	4600	RFG10	RFG11	3000.0	50	230	300	PAL2	0	R1060M
778.42	4.0	399311	STUDY_PAIR	n/a	wordpools/wordpool_EN.txt	CHALK	KEY	4	4	KEY	n/a	0	6	[0, 0, 0]	n/a	1	1	4600	RFG10	RFG11	3000.0	50	230	300	PAL2	0	R1060M
783.454	0.25	401827	STUDY_ORIENT	n/a	n/a	NAIL	TRAIN	5	3	NAIL	n/a	0	6	[0, 0, 0]	n/a	0	1	0	n/a	n/a	0.0	0	0	0	PAL2	0	R1060M
784.337	4.0	402269	STUDY_PAIR	n/a	wordpools/wordpool_EN.txt	NAIL	TRAIN	5	3	NAIL	n/a	0	6	[0, 0, 0]	n/a	0	1	0	n/a	n/a	0.0	0	0	0	PAL2	0	R1060M
789.355	0.25	404778	STUDY_ORIENT	n/a	n/a	MILK	DRESS	6	6	MILK	n/a	0	6	[0, 0, 0]	n/a	0	1	0	n/a	n/a	0.0	0	0	0	PAL2	0	R1060M
790.052	4.6	405126	STIM_ON	n/a	n/a	MILK	DRESS	6	6	MILK	n/a	0	6	[0, 0, 0]	n/a	1	1	4600	RFG10	RFG11	3000.0	50	230	300	PAL2	0	R1060M
790.255	4.0	405228	STUDY_PAIR	n/a	wordpools/wordpool_EN.txt	MILK	DRESS	6	6	MILK	n/a	0	6	[0, 0, 0]	n/a	1	1	4600	RFG10	RFG11	3000.0	50	230	300	PAL2	0	R1060M
794.256	1.0	407228	START	n/a	n/a	n/a	n/a	-999	-999	n/a	n/a	-999	6	[-999, -999, -999]	n/a	0	1	0	n/a	n/a	0.0	0	0	0	PAL2	0	R1060M
795.256	0.017	407728	MATH_START	n/a	n/a	n/a	n/a	-999	-999	n/a	n/a	-999	6	[0, 0, 0]	n/a	0	1	0	n/a	n/a	0.0	0	0	0	PAL2	0	R1060M
795.273	4.569	407737	PROB	4.54	n/a	n/a	n/a	-999	-999	n/a	n/a	-999	6	[3, 8, 3]	14	0	1	0	n/a	n/a	0.0	0	0	0	PAL2	0	R1060M
799.842	2.616	410021	PROB	2.594	n/a	n/a	n/a	-999	-999	n/a	n/a	-999	6	[2, 7, 2]	11	0	1	0	n/a	n/a	0.0	0	0	0	PAL2	0	R1060M
802.458	2.934	411329	PROB	2.906	n/a	n/a	n/a	-999	-999	n/a	n/a	-999	6	[2, 7, 9]	18	0	1	0	n/a	n/a	0.0	0	0	0	PAL2	0	R1060M
805.392	2.501	412796	PROB	2.477	n/a	n/a	n/a	-999	-999	n/a	n/a	-999	6	[1, 3, 5]	9	0	1	0	n/a	n/a	0.0	0	0	0	PAL2	0	R1060M
807.893	2.466	414046	PROB	2.439	n/a	n/a	n/a	-999	-999	n/a	n/a	-999	6	[2, 5, 7]	14	0	1	0	n/a	n/a	0.0	0	0	0	PAL2	0	R1060M
810.359	2.668	415279	PROB	2.645	n/a	n/a	n/a	-999	-999	n/a	n/a	-999	6	[2, 1, 3]	6	0	1	0	n/a	n/a	0.0	0	0	0	PAL2	0	R1060M
813.027	2.874	416613	PROB	2.874	n/a	n/a	n/a	-999	-999	n/a	n/a	-999	6	[5, 2, 2]	9	0	1	0	n/a	n/a	0.0	0	0	0	PAL2	0	R1060M
815.901	0.011	418050	STOP	n/a	n/a	n/a	n/a	-999	-999	n/a	n/a	-999	6	[-999, -999, -999]	n/a	0	1	0	n/a	n/a	0.0	0	0	0	PAL2	0	R1060M
815.912	0.0	418056	MATH_END	n/a	n/a	n/a	n/a	-999	-999	n/a	n/a	-999	6	[0, 0, 0]	n/a	0	1	0	n/a	n/a	0.0	0	0	0	PAL2	0	R1060M
815.912	0.016	418056	TEST_START	n/a	n/a	n/a	n/a	-999	-999	n/a	n/a	-999	6	[0, 0, 0]	n/a	0	1	0	n/a	n/a	0.0	0	0	0	PAL2	0	R1060M
815.928	0.25	418064	TEST_ORIENT	n/a	n/a	FUDGE	WEB	3	1	FUDGE	n/a	0	6	[0, 0, 0]	n/a	0	1	0	n/a	n/a	0.0	0	0	0	PAL2	0	R1060M
816.761	4.0	418480	TEST_PROBE	n/a	wordpools/wordpool_EN.txt	FUDGE	WEB	3	1	FUDGE	n/a	0	6	[0, 0, 0]	n/a	0	1	0	n/a	n/a	0.0	0	0	0	PAL2	0	R1060M
816.761	5.027	418480	REC_START	n/a	n/a	n/a	n/a	3	-999	n/a	n/a	0	6	[0, 0, 0]	n/a	0	1	0	n/a	n/a	0.0	0	0	0	PAL2	0	R1060M
821.788	0.001	420993	REC_EVENT	5.027	n/a	FUDGE	WEB	3	1	FUDGE	<>	0	6	[0, 0, 0]	n/a	0	1	0	n/a	n/a	0.0	0	0	0	PAL2	0	R1060M
821.789	0.007	420994	REC_END	n/a	n/a	n/a	n/a	3	-999	n/a	n/a	-999	6	[0, 0, 0]	n/a	0	1	0	n/a	n/a	0.0	0	0	0	PAL2	0	R1060M
821.796	0.25	420997	TEST_ORIENT	n/a	n/a	CAR	ROCK	2	2	CAR	n/a	0	6	[0, 0, 0]	n/a	0	1	0	n/a	n/a	0.0	0	0	0	PAL2	0	R1060M
822.813	4.0	421506	TEST_PROBE	n/a	wordpools/wordpool_EN.txt	CAR	ROCK	2	2	CAR	n/a	0	6	[0, 0, 0]	n/a	0	1	0	n/a	n/a	0.0	0	0	0	PAL2	0	R1060M
822.814	5.026	421506	REC_START	n/a	n/a	n/a	n/a	2	-999	n/a	n/a	0	6	[0, 0, 0]	n/a	0	1	0	n/a	n/a	0.0	0	0	0	PAL2	0	R1060M
827.84	0.001	424019	REC_END	n/a	n/a	n/a	n/a	2	-999	n/a	n/a	-999	6	[0, 0, 0]	n/a	0	1	0	n/a	n/a	0.0	0	0	0	PAL2	0	R1060M
827.841	0.006	424020	REC_EVENT	5.027	n/a	CAR	ROCK	2	2	CAR	<>	0	6	[0, 0, 0]	n/a	0	1	0	n/a	n/a	0.0	0	0	0	PAL2	0	R1060M
827.847	0.25	424023	TEST_ORIENT	n/a	n/a	NAIL	TRAIN	5	3	NAIL	n/a	0	6	[0, 0, 0]	n/a	0	1	0	n/a	n/a	0.0	0	0	0	PAL2	0	R1060M
828.814	0.0	424506	REC_START	n/a	n/a	n/a	n/a	5	-999	n/a	n/a	0	6	[0, 0, 0]	n/a	0	1	0	n/a	n/a	0.0	0	0	0	PAL2	0	R1060M
828.814	4.0	424506	TEST_PROBE	n/a	wordpools/wordpool_EN.txt	NAIL	TRAIN	5	3	NAIL	n/a	0	6	[0, 0, 0]	n/a	0	1	0	n/a	n/a	0.0	0	0	0	PAL2	0	R1060M
833.829	0.002	427014	REC_EVENT	5.015	n/a	NAIL	TRAIN	5	3	NAIL	<>	0	6	[0, 0, 0]	n/a	0	1	0	n/a	n/a	0.0	0	0	0	PAL2	0	R1060M
833.831	0.017	427015	REC_END	n/a	n/a	n/a	n/a	5	-999	n/a	n/a	-999	6	[0, 0, 0]	n/a	0	1	0	n/a	n/a	0.0	0	0	0	PAL2	0	R1060M
833.848	0.25	427023	TEST_ORIENT	n/a	n/a	CHALK	KEY	4	4	KEY	n/a	0	6	[0, 0, 0]	n/a	0	1	0	n/a	n/a	0.0	0	0	0	PAL2	0	R1060M
834.664	4.0	427431	TEST_PROBE	n/a	wordpools/wordpool_EN.txt	CHALK	KEY	4	4	KEY	n/a	0	6	[0, 0, 0]	n/a	0	1	0	n/a	n/a	0.0	0	0	0	PAL2	0	R1060M
834.665	5.009	427432	REC_START	n/a	n/a	n/a	n/a	4	-999	n/a	n/a	0	6	[0, 0, 0]	n/a	0	1	0	n/a	n/a	0.0	0	0	0	PAL2	0	R1060M
839.674	0.001	429936	REC_EVENT	5.009	n/a	CHALK	KEY	4	4	KEY	<>	0	6	[0, 0, 0]	n/a	0	1	0	n/a	n/a	0.0	0	0	0	PAL2	0	R1060M
839.675	0.024	429936	REC_END	n/a	n/a	n/a	n/a	4	-999	n/a	n/a	-999	6	[0, 0, 0]	n/a	0	1	0	n/a	n/a	0.0	0	0	0	PAL2	0	R1060M
839.699	0.25	429948	TEST_ORIENT	n/a	n/a	FOAM	CLOTH	1	5	FOAM	n/a	0	6	[0, 0, 0]	n/a	0	1	0	n/a	n/a	0.0	0	0	0	PAL2	0	R1060M
840.599	4.0	430398	TEST_PROBE	n/a	wordpools/wordpool_EN.txt	FOAM	CLOTH	1	5	FOAM	n/a	0	6	[0, 0, 0]	n/a	0	1	0	n/a	n/a	0.0	0	0	0	PAL2	0	R1060M
840.599	5.015	430398	REC_START	n/a	n/a	n/a	n/a	1	-999	n/a	n/a	0	6	[0, 0, 0]	n/a	0	1	0	n/a	n/a	0.0	0	0	0	PAL2	0	R1060M
845.614	0.002	432906	REC_EVENT	5.015	n/a	FOAM	CLOTH	1	5	FOAM	<>	0	6	[0, 0, 0]	n/a	0	1	0	n/a	n/a	0.0	0	0	0	PAL2	0	R1060M
845.616	0.017	432907	REC_END	n/a	n/a	n/a	n/a	1	-999	n/a	n/a	-999	6	[0, 0, 0]	n/a	0	1	0	n/a	n/a	0.0	0	0	0	PAL2	0	R1060M
845.633	0.25	432915	TEST_ORIENT	n/a	n/a	MILK	DRESS	6	6	MILK	n/a	0	6	[0, 0, 0]	n/a	0	1	0	n/a	n/a	0.0	0	0	0	PAL2	0	R1060M
846.5	0.0	433349	REC_START	n/a	n/a	n/a	n/a	6	-999	n/a	n/a	0	6	[0, 0, 0]	n/a	0	1	0	n/a	n/a	0.0	0	0	0	PAL2	0	R1060M
846.5	4.0	433349	TEST_PROBE	n/a	wordpools/wordpool_EN.txt	MILK	DRESS	6	6	MILK	n/a	0	6	[0, 0, 0]	n/a	0	1	0	n/a	n/a	0.0	0	0	0	PAL2	0	R1060M
851.515	0.002	435856	REC_EVENT	5.015	n/a	MILK	DRESS	6	6	MILK	<>	0	6	[0, 0, 0]	n/a	0	1	0	n/a	n/a	0.0	0	0	0	PAL2	0	R1060M
851.517	9.711	435857	REC_END	n/a	n/a	n/a	n/a	6	-999	n/a	n/a	-999	6	[0, 0, 0]	n/a	0	1	0	n/a	n/a	0.0	0	0	0	PAL2	0	R1060M
861.228	10.444	440712	ENCODING_START	n/a	n/a	n/a	n/a	0	-999	n/a	n/a	-999	7	[0, 0, 0]	n/a	0	1	0	n/a	n/a	0.0	0	0	0	PAL2	0	R1060M
871.672	0.25	445934	STUDY_ORIENT	n/a	n/a	WHALE	TOAST	1	3	TOAST	n/a	0	7	[0, 0, 0]	n/a	0	1	0	n/a	n/a	0.0	0	0	0	PAL2	0	R1060M
872.572	4.0	446384	STUDY_PAIR	n/a	wordpools/wordpool_EN.txt	WHALE	TOAST	1	3	TOAST	n/a	0	7	[0, 0, 0]	n/a	0	1	0	n/a	n/a	0.0	0	0	0	PAL2	0	R1060M
877.606	0.25	448901	STUDY_ORIENT	n/a	n/a	DRUM	SUIT	2	6	SUIT	n/a	0	7	[0, 0, 0]	n/a	0	1	0	n/a	n/a	0.0	0	0	0	PAL2	0	R1060M
878.49	4.0	449343	STUDY_PAIR	n/a	wordpools/wordpool_EN.txt	DRUM	SUIT	2	6	SUIT	n/a	0	7	[0, 0, 0]	n/a	0	1	0	n/a	n/a	0.0	0	0	0	PAL2	0	R1060M
883.524	0.25	451860	STUDY_ORIENT	n/a	n/a	STEM	SOCK	3	5	STEM	n/a	0	7	[0, 0, 0]	n/a	0	1	0	n/a	n/a	0.0	0	0	0	PAL2	0	R1060M
884.424	4.0	452310	STUDY_PAIR	n/a	wordpools/wordpool_EN.txt	STEM	SOCK	3	5	STEM	n/a	0	7	[0, 0, 0]	n/a	0	1	0	n/a	n/a	0.0	0	0	0	PAL2	0	R1060M
889.442	0.25	454819	STUDY_ORIENT	n/a	n/a	STICK	DOOR	4	4	STICK	n/a	0	7	[0, 0, 0]	n/a	0	1	0	n/a	n/a	0.0	0	0	0	PAL2	0	R1060M
890.442	4.0	455318	STUDY_PAIR	n/a	wordpools/wordpool_EN.txt	STICK	DOOR	4	4	STICK	n/a	0	7	[0, 0, 0]	n/a	0	1	0	n/a	n/a	0.0	0	0	0	PAL2	0	R1060M
895.476	0.25	457835	STUDY_ORIENT	n/a	n/a	CLOCK	RAKE	5	1	RAKE	n/a	0	7	[0, 0, 0]	n/a	0	1	0	n/a	n/a	0.0	0	0	0	PAL2	0	R1060M
896.26	4.0	458227	STUDY_PAIR	n/a	wordpools/wordpool_EN.txt	CLOCK	RAKE	5	1	RAKE	n/a	0	7	[0, 0, 0]	n/a	0	1	0	n/a	n/a	0.0	0	0	0	PAL2	0	R1060M
901.294	0.25	460744	STUDY_ORIENT	n/a	n/a	CRANE	YARD	6	2	YARD	CRANE	1	7	[0, 0, 0]	n/a	0	1	0	n/a	n/a	0.0	0	0	0	PAL2	0	R1060M
902.094	4.0	461144	STUDY_PAIR	n/a	wordpools/wordpool_EN.txt	CRANE	YARD	6	2	YARD	CRANE	1	7	[0, 0, 0]	n/a	0	1	0	n/a	n/a	0.0	0	0	0	PAL2	0	R1060M
906.095	1.0	463145	START	n/a	n/a	n/a	n/a	-999	-999	n/a	n/a	-999	7	[-999, -999, -999]	n/a	0	1	0	n/a	n/a	0.0	0	0	0	PAL2	0	R1060M
907.095	0.017	463645	MATH_START	n/a	n/a	n/a	n/a	-999	-999	n/a	n/a	-999	7	[0, 0, 0]	n/a	0	1	0	n/a	n/a	0.0	0	0	0	PAL2	0	R1060M
907.112	5.184	463653	PROB	5.164	n/a	n/a	n/a	-999	-999	n/a	n/a	-999	7	[7, 9, 6]	22	0	1	0	n/a	n/a	0.0	0	0	0	PAL2	0	R1060M
912.296	2.151	466245	PROB	2.116	n/a	n/a	n/a	-999	-999	n/a	n/a	-999	7	[9, 1, 1]	11	0	1	0	n/a	n/a	0.0	0	0	0	PAL2	0	R1060M
914.447	2.617	467320	PROB	2.597	n/a	n/a	n/a	-999	-999	n/a	n/a	-999	7	[1, 9, 6]	16	0	1	0	n/a	n/a	0.0	0	0	0	PAL2	0	R1060M
917.064	4.317	468629	PROB	4.292	n/a	n/a	n/a	-999	-999	n/a	n/a	-999	7	[5, 8, 7]	20	0	1	0	n/a	n/a	0.0	0	0	0	PAL2	0	R1060M
921.381	2.718	470787	PROB	2.695	n/a	n/a	n/a	-999	-999	n/a	n/a	-999	7	[9, 1, 7]	17	0	1	0	n/a	n/a	0.0	0	0	0	PAL2	0	R1060M
924.099	2.505	472146	PROB	2.505	n/a	n/a	n/a	-999	-999	n/a	n/a	-999	7	[2, 4, 1]	7	0	1	0	n/a	n/a	0.0	0	0	0	PAL2	0	R1060M
926.604	0.012	473398	STOP	n/a	n/a	n/a	n/a	-999	-999	n/a	n/a	-999	7	[-999, -999, -999]	n/a	0	1	0	n/a	n/a	0.0	0	0	0	PAL2	0	R1060M
926.616	0.0	473404	MATH_END	n/a	n/a	n/a	n/a	-999	-999	n/a	n/a	-999	7	[0, 0, 0]	n/a	0	1	0	n/a	n/a	0.0	0	0	0	PAL2	0	R1060M
926.616	0.017	473404	TEST_START	n/a	n/a	n/a	n/a	-999	-999	n/a	n/a	-999	7	[0, 0, 0]	n/a	0	1	0	n/a	n/a	0.0	0	0	0	PAL2	0	R1060M
926.633	0.25	473413	TEST_ORIENT	n/a	n/a	CLOCK	RAKE	5	1	RAKE	n/a	0	7	[0, 0, 0]	n/a	0	1	0	n/a	n/a	0.0	0	0	0	PAL2	0	R1060M
927.469	4.6	473831	STIM_ON	n/a	n/a	CLOCK	RAKE	5	1	RAKE	n/a	0	7	[0, 0, 0]	n/a	1	1	4600	RFG10	RFG11	3000.0	50	230	300	PAL2	0	R1060M
927.683	4.0	473938	TEST_PROBE	n/a	wordpools/wordpool_EN.txt	CLOCK	RAKE	5	1	RAKE	n/a	0	7	[0, 0, 0]	n/a	1	1	4600	RFG10	RFG11	3000.0	50	230	300	PAL2	0	R1060M
927.683	5.015	473938	REC_START	n/a	n/a	n/a	n/a	5	-999	n/a	n/a	0	7	[0, 0, 0]	n/a	1	1	4600	RFG10	RFG11	3000.0	50	230	300	PAL2	0	R1060M
932.698	0.002	476445	REC_EVENT	5.015	n/a	CLOCK	RAKE	5	1	RAKE	<>	0	7	[0, 0, 0]	n/a	0	1	0	n/a	n/a	0.0	0	0	0	PAL2	0	R1060M
932.7	0.017	476446	REC_END	n/a	n/a	n/a	n/a	5	-999	n/a	n/a	-999	7	[0, 0, 0]	n/a	0	1	0	n/a	n/a	0.0	0	0	0	PAL2	0	R1060M
932.717	0.25	476455	TEST_ORIENT	n/a	n/a	CRANE	YARD	6	2	YARD	CRANE	1	7	[0, 0, 0]	n/a	0	1	0	n/a	n/a	0.0	0	0	0	PAL2	0	R1060M
933.601	4.0	476897	TEST_PROBE	n/a	wordpools/wordpool_EN.txt	CRANE	YARD	6	2	YARD	CRANE	1	7	[0, 0, 0]	n/a	0	1	0	n/a	n/a	0.0	0	0	0	PAL2	0	R1060M
933.601	1.325	476897	REC_START	n/a	n/a	n/a	n/a	6	-999	n/a	CRANE	1	7	[0, 0, 0]	n/a	0	1	0	n/a	n/a	0.0	0	0	0	PAL2	0	R1060M
934.926	3.692	477559	REC_EVENT	1.325	n/a	CRANE	YARD	6	2	YARD	CRANE	1	7	[0, 0, 0]	n/a	0	1	0	n/a	n/a	0.0	0	0	0	PAL2	0	R1060M
938.618	0.017	479405	REC_END	n/a	n/a	n/a	n/a	6	-999	n/a	n/a	-999	7	[0, 0, 0]	n/a	0	1	0	n/a	n/a	0.0	0	0	0	PAL2	0	R1060M
938.635	0.25	479414	TEST_ORIENT	n/a	n/a	WHALE	TOAST	1	3	TOAST	n/a	0	7	[0, 0, 0]	n/a	0	1	0	n/a	n/a	0.0	0	0	0	PAL2	0	R1060M
939.241	4.6	479717	STIM_ON	n/a	n/a	WHALE	TOAST	1	3	TOAST	n/a	0	7	[0, 0, 0]	n/a	1	1	4600	RFG10	RFG11	3000.0	50	230	300	PAL2	0	R1060M
939.452	4.0	479822	TEST_PROBE	n/a	wordpools/wordpool_EN.txt	WHALE	TOAST	1	3	TOAST	n/a	0	7	[0, 0, 0]	n/a	1	1	4600	RFG10	RFG11	3000.0	50	230	300	PAL2	0	R1060M
939.452	5.015	479822	REC_START	n/a	n/a	n/a	n/a	1	-999	n/a	n/a	0	7	[0, 0, 0]	n/a	1	1	4600	RFG10	RFG11	3000.0	50	230	300	PAL2	0	R1060M
944.467	0.002	482330	REC_EVENT	5.015	n/a	WHALE	TOAST	1	3	TOAST	<>	0	7	[0, 0, 0]	n/a	0	1	0	n/a	n/a	0.0	0	0	0	PAL2	0	R1060M
944.469	0.017	482331	REC_END	n/a	n/a	n/a	n/a	1	-999	n/a	n/a	-999	7	[0, 0, 0]	n/a	0	1	0	n/a	n/a	0.0	0	0	0	PAL2	0	R1060M
944.486	0.25	482339	TEST_ORIENT	n/a	n/a	STICK	DOOR	4	4	STICK	n/a	0	7	[0, 0, 0]	n/a	0	1	0	n/a	n/a	0.0	0	0	0	PAL2	0	R1060M
945.436	4.0	482814	TEST_PROBE	n/a	wordpools/wordpool_EN.txt	STICK	DOOR	4	4	STICK	n/a	0	7	[0, 0, 0]	n/a	0	1	0	n/a	n/a	0.0	0	0	0	PAL2	0	R1060M
945.437	5.009	482814	REC_START	n/a	n/a	n/a	n/a	4	-999	n/a	n/a	0	7	[0, 0, 0]	n/a	0	1	0	n/a	n/a	0.0	0	0	0	PAL2	0	R1060M
950.446	0.001	485319	REC_EVENT	5.009	n/a	STICK	DOOR	4	4	STICK	<>	0	7	[0, 0, 0]	n/a	0	1	0	n/a	n/a	0.0	0	0	0	PAL2	0	R1060M
950.447	0.024	485319	REC_END	n/a	n/a	n/a	n/a	4	-999	n/a	n/a	-999	7	[0, 0, 0]	n/a	0	1	0	n/a	n/a	0.0	0	0	0	PAL2	0	R1060M
950.471	0.25	485331	TEST_ORIENT	n/a	n/a	STEM	SOCK	3	5	STEM	n/a	0	7	[0, 0, 0]	n/a	0	1	0	n/a	n/a	0.0	0	0	0	PAL2	0	R1060M
951.23	4.6	485711	STIM_ON	n/a	n/a	STEM	SOCK	3	5	STEM	n/a	0	7	[0, 0, 0]	n/a	1	1	4600	RFG10	RFG11	3000.0	50	230	300	PAL2	0	R1060M
951.437	4.0	485814	TEST_PROBE	n/a	wordpools/wordpool_EN.txt	STEM	SOCK	3	5	STEM	n/a	0	7	[0, 0, 0]	n/a	1	1	4600	RFG10	RFG11	3000.0	50	230	300	PAL2	0	R1060M
951.438	4.998	485815	REC_START	n/a	n/a	n/a	n/a	3	-999	n/a	n/a	0	7	[0, 0, 0]	n/a	1	1	4600	RFG10	RFG11	3000.0	50	230	300	PAL2	0	R1060M
956.436	0.002	488314	REC_EVENT	4.998	n/a	STEM	SOCK	3	5	STEM	<>	0	7	[0, 0, 0]	n/a	0	1	0	n/a	n/a	0.0	0	0	0	PAL2	0	R1060M
956.438	0.017	488315	REC_END	n/a	n/a	n/a	n/a	3	-999	n/a	n/a	-999	7	[0, 0, 0]	n/a	0	1	0	n/a	n/a	0.0	0	0	0	PAL2	0	R1060M
956.455	0.25	488323	TEST_ORIENT	n/a	n/a	DRUM	SUIT	2	6	SUIT	n/a	0	7	[0, 0, 0]	n/a	0	1	0	n/a	n/a	0.0	0	0	0	PAL2	0	R1060M
957.355	4.0	488773	TEST_PROBE	n/a	wordpools/wordpool_EN.txt	DRUM	SUIT	2	6	SUIT	n/a	0	7	[0, 0, 0]	n/a	0	1	0	n/a	n/a	0.0	0	0	0	PAL2	0	R1060M
957.356	5.009	488774	REC_START	n/a	n/a	n/a	n/a	2	-999	n/a	n/a	0	7	[0, 0, 0]	n/a	0	1	0	n/a	n/a	0.0	0	0	0	PAL2	0	R1060M
962.365	0.001	491278	REC_EVENT	5.009	n/a	DRUM	SUIT	2	6	SUIT	<>	0	7	[0, 0, 0]	n/a	0	1	0	n/a	n/a	0.0	0	0	0	PAL2	0	R1060M
962.366	3.734	491279	REC_END	n/a	n/a	n/a	n/a	2	-999	n/a	n/a	-999	7	[0, 0, 0]	n/a	0	1	0	n/a	n/a	0.0	0	0	0	PAL2	0	R1060M
966.1	10.442	493145	ENCODING_START	n/a	n/a	n/a	n/a	0	-999	n/a	n/a	-999	8	[0, 0, 0]	n/a	0	1	0	n/a	n/a	0.0	0	0	0	PAL2	0	R1060M
976.542	0.25	498366	STUDY_ORIENT	n/a	n/a	FARM	STORM	1	5	FARM	n/a	0	8	[0, 0, 0]	n/a	0	1	0	n/a	n/a	0.0	0	0	0	PAL2	0	R1060M
977.509	4.0	498850	STUDY_PAIR	n/a	wordpools/wordpool_EN.txt	FARM	STORM	1	5	FARM	n/a	0	8	[0, 0, 0]	n/a	0	1	0	n/a	n/a	0.0	0	0	0	PAL2	0	R1060M
982.527	0.25	501358	STUDY_ORIENT	n/a	n/a	SHEEP	BRICK	2	6	BRICK	n/a	0	8	[0, 0, 0]	n/a	0	1	0	n/a	n/a	0.0	0	0	0	PAL2	0	R1060M
983.314	4.6	501752	STIM_ON	n/a	n/a	SHEEP	BRICK	2	6	BRICK	n/a	0	8	[0, 0, 0]	n/a	1	1	4600	RFG10	RFG11	3000.0	50	230	300	PAL2	0	R1060M
983.527	4.0	501858	STUDY_PAIR	n/a	wordpools/wordpool_EN.txt	SHEEP	BRICK	2	6	BRICK	n/a	0	8	[0, 0, 0]	n/a	1	1	4600	RFG10	RFG11	3000.0	50	230	300	PAL2	0	R1060M
988.545	0.25	504367	STUDY_ORIENT	n/a	n/a	SOUP	PRINCE	3	1	PRINCE	n/a	0	8	[0, 0, 0]	n/a	0	1	0	n/a	n/a	0.0	0	0	0	PAL2	0	R1060M
989.328	4.0	504759	STUDY_PAIR	n/a	wordpools/wordpool_EN.txt	SOUP	PRINCE	3	1	PRINCE	n/a	0	8	[0, 0, 0]	n/a	0	1	0	n/a	n/a	0.0	0	0	0	PAL2	0	R1060M
994.346	0.25	507268	STUDY_ORIENT	n/a	n/a	CLOUD	CROW	4	4	CLOUD	n/a	0	8	[0, 0, 0]	n/a	0	1	0	n/a	n/a	0.0	0	0	0	PAL2	0	R1060M
995.065	4.6	507627	STIM_ON	n/a	n/a	CLOUD	CROW	4	4	CLOUD	n/a	0	8	[0, 0, 0]	n/a	1	1	4600	RFG10	RFG11	3000.0	50	230	300	PAL2	0	R1060M
995.279	4.0	507734	STUDY_PAIR	n/a	wordpools/wordpool_EN.txt	CLOUD	CROW	4	4	CLOUD	n/a	0	8	[0, 0, 0]	n/a	1	1	4600	RFG10	RFG11	3000.0	50	230	300	PAL2	0	R1060M
1000.297	0.25	510243	STUDY_ORIENT	n/a	n/a	STAIR	SLEEVE	5	3	STAIR	n/a	0	8	[0, 0, 0]	n/a	0	1	0	n/a	n/a	0.0	0	0	0	PAL2	0	R1060M
1001.197	4.0	510693	STUDY_PAIR	n/a	wordpools/wordpool_EN.txt	STAIR	SLEEVE	5	3	STAIR	n/a	0	8	[0, 0, 0]	n/a	0	1	0	n/a	n/a	0.0	0	0	0	PAL2	0	R1060M
1006.215	0.25	513202	STUDY_ORIENT	n/a	n/a	CAT	EEL	6	2	EEL	CAT	1	8	[0, 0, 0]	n/a	0	1	0	n/a	n/a	0.0	0	0	0	PAL2	0	R1060M
1006.936	4.6	513562	STIM_ON	n/a	n/a	CAT	EEL	6	2	EEL	CAT	1	8	[0, 0, 0]	n/a	1	1	4600	RFG10	RFG11	3000.0	50	230	300	PAL2	0	R1060M
1007.148	4.0	513668	STUDY_PAIR	n/a	wordpools/wordpool_EN.txt	CAT	EEL	6	2	EEL	CAT	1	8	[0, 0, 0]	n/a	1	1	4600	RFG10	RFG11	3000.0	50	230	300	PAL2	0	R1060M
1011.149	1.0	515669	START	n/a	n/a	n/a	n/a	-999	-999	n/a	n/a	-999	8	[-999, -999, -999]	n/a	0	1	0	n/a	n/a	0.0	0	0	0	PAL2	0	R1060M
1012.149	0.017	516169	MATH_START	n/a	n/a	n/a	n/a	-999	-999	n/a	n/a	-999	8	[0, 0, 0]	n/a	0	1	0	n/a	n/a	0.0	0	0	0	PAL2	0	R1060M
1012.166	3.868	516177	PROB	3.838	n/a	n/a	n/a	-999	-999	n/a	n/a	-999	8	[4, 3, 8]	15	0	1	0	n/a	n/a	0.0	0	0	0	PAL2	0	R1060M
1016.034	6.351	518111	PROB	6.33	n/a	n/a	n/a	-999	-999	n/a	n/a	-999	8	[6, 7, 9]	22	0	1	0	n/a	n/a	0.0	0	0	0	PAL2	0	R1060M
1022.385	3.468	521286	PROB	3.444	n/a	n/a	n/a	-999	-999	n/a	n/a	-999	8	[2, 2, 3]	7	0	1	0	n/a	n/a	0.0	0	0	0	PAL2	0	R1060M
1025.853	2.85	523020	PROB	2.815	n/a	n/a	n/a	-999	-999	n/a	n/a	-999	8	[9, 5, 2]	16	0	1	0	n/a	n/a	0.0	0	0	0	PAL2	0	R1060M
1028.703	5.821	524445	PROB	5.821	n/a	n/a	n/a	-999	-999	n/a	n/a	-999	8	[5, 2, 8]	15	0	1	0	n/a	n/a	0.0	0	0	0	PAL2	0	R1060M
1034.524	0.013	527356	STOP	n/a	n/a	n/a	n/a	-999	-999	n/a	n/a	-999	8	[-999, -999, -999]	n/a	0	1	0	n/a	n/a	0.0	0	0	0	PAL2	0	R1060M
1034.537	0.0	527362	MATH_END	n/a	n/a	n/a	n/a	-999	-999	n/a	n/a	-999	8	[0, 0, 0]	n/a	0	1	0	n/a	n/a	0.0	0	0	0	PAL2	0	R1060M
1034.537	0.017	527362	TEST_START	n/a	n/a	n/a	n/a	-999	-999	n/a	n/a	-999	8	[0, 0, 0]	n/a	0	1	0	n/a	n/a	0.0	0	0	0	PAL2	0	R1060M
1034.554	0.25	527371	TEST_ORIENT	n/a	n/a	SOUP	PRINCE	3	1	PRINCE	n/a	0	8	[0, 0, 0]	n/a	0	1	0	n/a	n/a	0.0	0	0	0	PAL2	0	R1060M
1035.338	4.0	527763	TEST_PROBE	n/a	wordpools/wordpool_EN.txt	SOUP	PRINCE	3	1	PRINCE	n/a	0	8	[0, 0, 0]	n/a	0	1	0	n/a	n/a	0.0	0	0	0	PAL2	0	R1060M
1035.338	3.378	527763	REC_START	n/a	n/a	n/a	n/a	3	-999	n/a	n/a	0	8	[0, 0, 0]	n/a	0	1	0	n/a	n/a	0.0	0	0	0	PAL2	0	R1060M
1038.716	1.639	529451	REC_EVENT	3.378	n/a	SOUP	PRINCE	3	1	PRINCE	<>	0	8	[0, 0, 0]	n/a	0	1	0	n/a	n/a	0.0	0	0	0	PAL2	0	R1060M
1040.355	0.017	530271	REC_END	n/a	n/a	n/a	n/a	3	-999	n/a	n/a	-999	8	[0, 0, 0]	n/a	0	1	0	n/a	n/a	0.0	0	0	0	PAL2	0	R1060M
1040.372	0.25	530279	TEST_ORIENT	n/a	n/a	CAT	EEL	6	2	EEL	CAT	1	8	[0, 0, 0]	n/a	0	1	0	n/a	n/a	0.0	0	0	0	PAL2	0	R1060M
1041.405	4.0	530796	TEST_PROBE	n/a	wordpools/wordpool_EN.txt	CAT	EEL	6	2	EEL	CAT	1	8	[0, 0, 0]	n/a	0	1	0	n/a	n/a	0.0	0	0	0	PAL2	0	R1060M
1041.405	1.227	530796	REC_START	n/a	n/a	n/a	n/a	6	-999	n/a	CAT	1	8	[0, 0, 0]	n/a	0	1	0	n/a	n/a	0.0	0	0	0	PAL2	0	R1060M
1042.632	3.791	531409	REC_EVENT	1.227	n/a	CAT	EEL	6	2	EEL	CAT	1	8	[0, 0, 0]	n/a	0	1	0	n/a	n/a	0.0	0	0	0	PAL2	0	R1060M
1046.423	0.017	533305	REC_END	n/a	n/a	n/a	n/a	6	-999	n/a	n/a	-999	8	[0, 0, 0]	n/a	0	1	0	n/a	n/a	0.0	0	0	0	PAL2	0	R1060M
1046.44	0.25	533313	TEST_ORIENT	n/a	n/a	STAIR	SLEEVE	5	3	STAIR	n/a	0	8	[0, 0, 0]	n/a	0	1	0	n/a	n/a	0.0	0	0	0	PAL2	0	R1060M
1047.407	4.0	533797	TEST_PROBE	n/a	wordpools/wordpool_EN.txt	STAIR	SLEEVE	5	3	STAIR	n/a	0	8	[0, 0, 0]	n/a	0	1	0	n/a	n/a	0.0	0	0	0	PAL2	0	R1060M
1047.407	5.015	533797	REC_START	n/a	n/a	n/a	n/a	5	-999	n/a	n/a	0	8	[0, 0, 0]	n/a	0	1	0	n/a	n/a	0.0	0	0	0	PAL2	0	R1060M
1052.422	0.002	536304	REC_EVENT	5.015	n/a	STAIR	SLEEVE	5	3	STAIR	<>	0	8	[0, 0, 0]	n/a	0	1	0	n/a	n/a	0.0	0	0	0	PAL2	0	R1060M
1052.424	0.017	536305	REC_END	n/a	n/a	n/a	n/a	5	-999	n/a	n/a	-999	8	[0, 0, 0]	n/a	0	1	0	n/a	n/a	0.0	0	0	0	PAL2	0	R1060M
1052.441	0.25	536314	TEST_ORIENT	n/a	n/a	CLOUD	CROW	4	4	CLOUD	n/a	0	8	[0, 0, 0]	n/a	0	1	0	n/a	n/a	0.0	0	0	0	PAL2	0	R1060M
1053.324	4.0	536755	TEST_PROBE	n/a	wordpools/wordpool_EN.txt	CLOUD	CROW	4	4	CLOUD	n/a	0	8	[0, 0, 0]	n/a	0	1	0	n/a	n/a	0.0	0	0	0	PAL2	0	R1060M
1053.325	5.015	536756	REC_START	n/a	n/a	n/a	n/a	4	-999	n/a	n/a	0	8	[0, 0, 0]	n/a	0	1	0	n/a	n/a	0.0	0	0	0	PAL2	0	R1060M
1058.34	0.005	539263	REC_EVENT	5.015	n/a	CLOUD	CROW	4	4	CLOUD	<>	0	8	[0, 0, 0]	n/a	0	1	0	n/a	n/a	0.0	0	0	0	PAL2	0	R1060M
1058.345	0.014	539265	REC_END	n/a	n/a	n/a	n/a	4	-999	n/a	n/a	-999	8	[0, 0, 0]	n/a	0	1	0	n/a	n/a	0.0	0	0	0	PAL2	0	R1060M
1058.359	0.25	539272	TEST_ORIENT	n/a	n/a	FARM	STORM	1	5	FARM	n/a	0	8	[0, 0, 0]	n/a	0	1	0	n/a	n/a	0.0	0	0	0	PAL2	0	R1060M
1059.342	4.0	539764	TEST_PROBE	n/a	wordpools/wordpool_EN.txt	FARM	STORM	1	5	FARM	n/a	0	8	[0, 0, 0]	n/a	0	1	0	n/a	n/a	0.0	0	0	0	PAL2	0	R1060M
1059.343	5.009	539764	REC_START	n/a	n/a	n/a	n/a	1	-999	n/a	n/a	0	8	[0, 0, 0]	n/a	0	1	0	n/a	n/a	0.0	0	0	0	PAL2	0	R1060M
1064.352	0.0	542269	REC_EVENT	5.009	n/a	FARM	STORM	1	5	FARM	<>	0	8	[0, 0, 0]	n/a	0	1	0	n/a	n/a	0.0	0	0	0	PAL2	0	R1060M
1064.352	0.008	542269	REC_END	n/a	n/a	n/a	n/a	1	-999	n/a	n/a	-999	8	[0, 0, 0]	n/a	0	1	0	n/a	n/a	0.0	0	0	0	PAL2	0	R1060M
1064.36	0.25	542273	TEST_ORIENT	n/a	n/a	SHEEP	BRICK	2	6	BRICK	n/a	0	8	[0, 0, 0]	n/a	0	1	0	n/a	n/a	0.0	0	0	0	PAL2	0	R1060M
1065.226	4.0	542706	TEST_PROBE	n/a	wordpools/wordpool_EN.txt	SHEEP	BRICK	2	6	BRICK	n/a	0	8	[0, 0, 0]	n/a	0	1	0	n/a	n/a	0.0	0	0	0	PAL2	0	R1060M
1065.227	4.998	542706	REC_START	n/a	n/a	n/a	n/a	2	-999	n/a	n/a	0	8	[0, 0, 0]	n/a	0	1	0	n/a	n/a	0.0	0	0	0	PAL2	0	R1060M
1070.225	0.002	545205	REC_EVENT	4.998	n/a	SHEEP	BRICK	2	6	BRICK	<>	0	8	[0, 0, 0]	n/a	0	1	0	n/a	n/a	0.0	0	0	0	PAL2	0	R1060M
1070.227	3.281	545206	REC_END	n/a	n/a	n/a	n/a	2	-999	n/a	n/a	-999	8	[0, 0, 0]	n/a	0	1	0	n/a	n/a	0.0	0	0	0	PAL2	0	R1060M
1073.508	10.44	546846	ENCODING_START	n/a	n/a	n/a	n/a	0	-999	n/a	n/a	-999	9	[0, 0, 0]	n/a	0	0	0	n/a	n/a	0.0	0	0	0	PAL2	0	R1060M
1083.948	0.25	552066	STUDY_ORIENT	n/a	n/a	HOOF	BROOM	1	5	HOOF	n/a	0	9	[0, 0, 0]	n/a	0	0	0	n/a	n/a	0.0	0	0	0	PAL2	0	R1060M
1084.865	4.0	552525	STUDY_PAIR	n/a	wordpools/wordpool_EN.txt	HOOF	BROOM	1	5	HOOF	n/a	0	9	[0, 0, 0]	n/a	0	0	0	n/a	n/a	0.0	0	0	0	PAL2	0	R1060M
1089.899	0.25	555042	STUDY_ORIENT	n/a	n/a	FOG	ARK	2	2	FOG	n/a	0	9	[0, 0, 0]	n/a	0	0	0	n/a	n/a	0.0	0	0	0	PAL2	0	R1060M
1090.866	4.0	555525	STUDY_PAIR	n/a	wordpools/wordpool_EN.txt	FOG	ARK	2	2	FOG	n/a	0	9	[0, 0, 0]	n/a	0	0	0	n/a	n/a	0.0	0	0	0	PAL2	0	R1060M
1095.884	0.25	558034	STUDY_ORIENT	n/a	n/a	BLUSH	PANTS	3	3	PANTS	n/a	0	9	[0, 0, 0]	n/a	0	0	0	n/a	n/a	0.0	0	0	0	PAL2	0	R1060M
1096.817	4.0	558500	STUDY_PAIR	n/a	wordpools/wordpool_EN.txt	BLUSH	PANTS	3	3	PANTS	n/a	0	9	[0, 0, 0]	n/a	0	0	0	n/a	n/a	0.0	0	0	0	PAL2	0	R1060M
1101.835	0.25	561009	STUDY_ORIENT	n/a	n/a	PEA	SKUNK	4	4	SKUNK	n/a	0	9	[0, 0, 0]	n/a	0	0	0	n/a	n/a	0.0	0	0	0	PAL2	0	R1060M
1102.618	4.0	561401	STUDY_PAIR	n/a	wordpools/wordpool_EN.txt	PEA	SKUNK	4	4	SKUNK	n/a	0	9	[0, 0, 0]	n/a	0	0	0	n/a	n/a	0.0	0	0	0	PAL2	0	R1060M
1107.652	0.25	563918	STUDY_ORIENT	n/a	n/a	MOLE	FENCE	5	1	MOLE	SHOE	0	9	[0, 0, 0]	n/a	0	0	0	n/a	n/a	0.0	0	0	0	PAL2	0	R1060M
1108.585	4.0	564384	STUDY_PAIR	n/a	wordpools/wordpool_EN.txt	MOLE	FENCE	5	1	MOLE	SHOE	0	9	[0, 0, 0]	n/a	0	0	0	n/a	n/a	0.0	0	0	0	PAL2	0	R1060M
1113.603	0.25	566893	STUDY_ORIENT	n/a	n/a	FAN	SHOE	6	6	SHOE	n/a	0	9	[0, 0, 0]	n/a	0	0	0	n/a	n/a	0.0	0	0	0	PAL2	0	R1060M
1114.586	4.0	567384	STUDY_PAIR	n/a	wordpools/wordpool_EN.txt	FAN	SHOE	6	6	SHOE	n/a	0	9	[0, 0, 0]	n/a	0	0	0	n/a	n/a	0.0	0	0	0	PAL2	0	R1060M
1118.587	1.0	569385	START	n/a	n/a	n/a	n/a	-999	-999	n/a	n/a	-999	9	[-999, -999, -999]	n/a	0	0	0	n/a	n/a	0.0	0	0	0	PAL2	0	R1060M
1119.587	0.017	569885	MATH_START	n/a	n/a	n/a	n/a	-999	-999	n/a	n/a	-999	9	[0, 0, 0]	n/a	0	0	0	n/a	n/a	0.0	0	0	0	PAL2	0	R1060M
1119.604	3.768	569893	PROB	3.744	n/a	n/a	n/a	-999	-999	n/a	n/a	-999	9	[3, 1, 8]	12	0	0	0	n/a	n/a	0.0	0	0	0	PAL2	0	R1060M
1123.372	3.084	571777	PROB	3.056	n/a	n/a	n/a	-999	-999	n/a	n/a	-999	9	[3, 6, 8]	17	0	0	0	n/a	n/a	0.0	0	0	0	PAL2	0	R1060M
1126.456	2.484	573319	PROB	2.453	n/a	n/a	n/a	-999	-999	n/a	n/a	-999	9	[4, 4, 9]	17	0	0	0	n/a	n/a	0.0	0	0	0	PAL2	0	R1060M
1128.94	2.55	574561	PROB	2.528	n/a	n/a	n/a	-999	-999	n/a	n/a	-999	9	[1, 3, 3]	7	0	0	0	n/a	n/a	0.0	0	0	0	PAL2	0	R1060M
1131.49	3.05	575836	PROB	3.018	n/a	n/a	n/a	-999	-999	n/a	n/a	-999	9	[6, 4, 8]	18	0	0	0	n/a	n/a	0.0	0	0	0	PAL2	0	R1060M
1134.54	2.984	577361	PROB	2.96	n/a	n/a	n/a	-999	-999	n/a	n/a	-999	9	[5, 9, 9]	23	0	0	0	n/a	n/a	0.0	0	0	0	PAL2	0	R1060M
1137.524	2.832	578853	PROB	2.832	n/a	n/a	n/a	-999	-999	n/a	n/a	-999	9	[9, 5, 5]	19	0	0	0	n/a	n/a	0.0	0	0	0	PAL2	0	R1060M
1140.356	0.002	580269	STOP	n/a	n/a	n/a	n/a	-999	-999	n/a	n/a	-999	9	[-999, -999, -999]	n/a	0	0	0	n/a	n/a	0.0	0	0	0	PAL2	0	R1060M
1140.358	0.0	580270	MATH_END	n/a	n/a	n/a	n/a	-999	-999	n/a	n/a	-999	9	[0, 0, 0]	n/a	0	0	0	n/a	n/a	0.0	0	0	0	PAL2	0	R1060M
1140.358	0.017	580270	TEST_START	n/a	n/a	n/a	n/a	-999	-999	n/a	n/a	-999	9	[0, 0, 0]	n/a	0	0	0	n/a	n/a	0.0	0	0	0	PAL2	0	R1060M
1140.375	0.25	580278	TEST_ORIENT	n/a	n/a	MOLE	FENCE	5	1	MOLE	SHOE	0	9	[0, 0, 0]	n/a	0	0	0	n/a	n/a	0.0	0	0	0	PAL2	0	R1060M
1141.292	4.0	580737	TEST_PROBE	n/a	wordpools/wordpool_EN.txt	MOLE	FENCE	5	1	MOLE	SHOE	0	9	[0, 0, 0]	n/a	0	0	0	n/a	n/a	0.0	0	0	0	PAL2	0	R1060M
1141.293	2.305	580737	REC_START	n/a	n/a	n/a	n/a	5	-999	n/a	SHOE	0	9	[0, 0, 0]	n/a	0	0	0	n/a	n/a	0.0	0	0	0	PAL2	0	R1060M
1143.598	2.711	581890	REC_EVENT	2.305	n/a	MOLE	FENCE	5	1	MOLE	SHOE	0	9	[0, 0, 0]	n/a	0	0	0	n/a	n/a	0.0	0	0	0	PAL2	0	R1060M
1146.309	0.017	583245	REC_END	n/a	n/a	n/a	n/a	5	-999	n/a	n/a	-999	9	[0, 0, 0]	n/a	0	0	0	n/a	n/a	0.0	0	0	0	PAL2	0	R1060M
1146.326	0.25	583253	TEST_ORIENT	n/a	n/a	FOG	ARK	2	2	FOG	n/a	0	9	[0, 0, 0]	n/a	0	0	0	n/a	n/a	0.0	0	0	0	PAL2	0	R1060M
1147.26	4.0	583720	TEST_PROBE	n/a	wordpools/wordpool_EN.txt	FOG	ARK	2	2	FOG	n/a	0	9	[0, 0, 0]	n/a	0	0	0	n/a	n/a	0.0	0	0	0	PAL2	0	R1060M
1147.26	5.017	583720	REC_START	n/a	n/a	n/a	n/a	2	-999	n/a	n/a	0	9	[0, 0, 0]	n/a	0	0	0	n/a	n/a	0.0	0	0	0	PAL2	0	R1060M
1152.277	0.004	586229	REC_END	n/a	n/a	n/a	n/a	2	-999	n/a	n/a	-999	9	[0, 0, 0]	n/a	0	0	0	n/a	n/a	0.0	0	0	0	PAL2	0	R1060M
1152.281	0.013	586231	REC_EVENT	5.021	n/a	FOG	ARK	2	2	FOG	<>	0	9	[0, 0, 0]	n/a	0	0	0	n/a	n/a	0.0	0	0	0	PAL2	0	R1060M
1152.294	0.25	586237	TEST_ORIENT	n/a	n/a	BLUSH	PANTS	3	3	PANTS	n/a	0	9	[0, 0, 0]	n/a	0	0	0	n/a	n/a	0.0	0	0	0	PAL2	0	R1060M
1153.128	4.0	586654	TEST_PROBE	n/a	wordpools/wordpool_EN.txt	BLUSH	PANTS	3	3	PANTS	n/a	0	9	[0, 0, 0]	n/a	0	0	0	n/a	n/a	0.0	0	0	0	PAL2	0	R1060M
1153.128	5.015	586654	REC_START	n/a	n/a	n/a	n/a	3	-999	n/a	n/a	0	9	[0, 0, 0]	n/a	0	0	0	n/a	n/a	0.0	0	0	0	PAL2	0	R1060M
1158.143	0.002	589162	REC_EVENT	5.015	n/a	BLUSH	PANTS	3	3	PANTS	<>	0	9	[0, 0, 0]	n/a	0	0	0	n/a	n/a	0.0	0	0	0	PAL2	0	R1060M
1158.145	0.017	589163	REC_END	n/a	n/a	n/a	n/a	3	-999	n/a	n/a	-999	9	[0, 0, 0]	n/a	0	0	0	n/a	n/a	0.0	0	0	0	PAL2	0	R1060M
1158.162	0.25	589171	TEST_ORIENT	n/a	n/a	PEA	SKUNK	4	4	SKUNK	n/a	0	9	[0, 0, 0]	n/a	0	0	0	n/a	n/a	0.0	0	0	0	PAL2	0	R1060M
1159.195	4.0	589688	TEST_PROBE	n/a	wordpools/wordpool_EN.txt	PEA	SKUNK	4	4	SKUNK	n/a	0	9	[0, 0, 0]	n/a	0	0	0	n/a	n/a	0.0	0	0	0	PAL2	0	R1060M
1159.196	5.003	589688	REC_START	n/a	n/a	n/a	n/a	4	-999	n/a	n/a	0	9	[0, 0, 0]	n/a	0	0	0	n/a	n/a	0.0	0	0	0	PAL2	0	R1060M
1164.199	0.006	592190	REC_EVENT	5.003	n/a	PEA	SKUNK	4	4	SKUNK	<>	0	9	[0, 0, 0]	n/a	0	0	0	n/a	n/a	0.0	0	0	0	PAL2	0	R1060M
1164.205	0.008	592193	REC_END	n/a	n/a	n/a	n/a	4	-999	n/a	n/a	-999	9	[0, 0, 0]	n/a	0	0	0	n/a	n/a	0.0	0	0	0	PAL2	0	R1060M
1164.213	0.25	592197	TEST_ORIENT	n/a	n/a	HOOF	BROOM	1	5	HOOF	n/a	0	9	[0, 0, 0]	n/a	0	0	0	n/a	n/a	0.0	0	0	0	PAL2	0	R1060M
1165.047	4.0	592613	TEST_PROBE	n/a	wordpools/wordpool_EN.txt	HOOF	BROOM	1	5	HOOF	n/a	0	9	[0, 0, 0]	n/a	0	0	0	n/a	n/a	0.0	0	0	0	PAL2	0	R1060M
1165.047	5.017	592613	REC_START	n/a	n/a	n/a	n/a	1	-999	n/a	n/a	0	9	[0, 0, 0]	n/a	0	0	0	n/a	n/a	0.0	0	0	0	PAL2	0	R1060M
1170.064	0.004	595122	REC_END	n/a	n/a	n/a	n/a	1	-999	n/a	n/a	-999	9	[0, 0, 0]	n/a	0	0	0	n/a	n/a	0.0	0	0	0	PAL2	0	R1060M
1170.068	0.013	595124	REC_EVENT	5.021	n/a	HOOF	BROOM	1	5	HOOF	<>	0	9	[0, 0, 0]	n/a	0	0	0	n/a	n/a	0.0	0	0	0	PAL2	0	R1060M
1170.081	0.25	595130	TEST_ORIENT	n/a	n/a	FAN	SHOE	6	6	SHOE	n/a	0	9	[0, 0, 0]	n/a	0	0	0	n/a	n/a	0.0	0	0	0	PAL2	0	R1060M
1171.064	4.0	595622	TEST_PROBE	n/a	wordpools/wordpool_EN.txt	FAN	SHOE	6	6	SHOE	n/a	0	9	[0, 0, 0]	n/a	0	0	0	n/a	n/a	0.0	0	0	0	PAL2	0	R1060M
1171.065	5.009	595622	REC_START	n/a	n/a	n/a	n/a	6	-999	n/a	n/a	0	9	[0, 0, 0]	n/a	0	0	0	n/a	n/a	0.0	0	0	0	PAL2	0	R1060M
1176.074	0.001	598127	REC_EVENT	5.009	n/a	FAN	SHOE	6	6	SHOE	<>	0	9	[0, 0, 0]	n/a	0	0	0	n/a	n/a	0.0	0	0	0	PAL2	0	R1060M
1176.075	3.961	598127	REC_END	n/a	n/a	n/a	n/a	6	-999	n/a	n/a	-999	9	[0, 0, 0]	n/a	0	0	0	n/a	n/a	0.0	0	0	0	PAL2	0	R1060M
1180.036	10.449	600108	ENCODING_START	n/a	n/a	n/a	n/a	0	-999	n/a	n/a	-999	10	[0, 0, 0]	n/a	0	1	0	n/a	n/a	0.0	0	0	0	PAL2	0	R1060M
1190.485	0.25	605332	STUDY_ORIENT	n/a	n/a	WOOD	CORD	1	3	CORD	n/a	0	10	[0, 0, 0]	n/a	0	1	0	n/a	n/a	0.0	0	0	0	PAL2	0	R1060M
1191.452	4.0	605815	STUDY_PAIR	n/a	wordpools/wordpool_EN.txt	WOOD	CORD	1	3	CORD	n/a	0	10	[0, 0, 0]	n/a	0	1	0	n/a	n/a	0.0	0	0	0	PAL2	0	R1060M
1196.486	0.25	608332	STUDY_ORIENT	n/a	n/a	STAR	MOOSE	2	6	STAR	n/a	0	10	[0, 0, 0]	n/a	0	1	0	n/a	n/a	0.0	0	0	0	PAL2	0	R1060M
1197.139	4.6	608659	STIM_ON	n/a	n/a	STAR	MOOSE	2	6	STAR	n/a	0	10	[0, 0, 0]	n/a	1	1	4600	RFG10	RFG11	3000.0	50	230	300	PAL2	0	R1060M
1197.353	4.0	608766	STUDY_PAIR	n/a	wordpools/wordpool_EN.txt	STAR	MOOSE	2	6	STAR	n/a	0	10	[0, 0, 0]	n/a	1	1	4600	RFG10	RFG11	3000.0	50	230	300	PAL2	0	R1060M
1202.387	0.25	611282	STUDY_ORIENT	n/a	n/a	FOOT	LIP	3	1	LIP	n/a	0	10	[0, 0, 0]	n/a	0	1	0	n/a	n/a	0.0	0	0	0	PAL2	0	R1060M
1203.354	4.0	611766	STUDY_PAIR	n/a	wordpools/wordpool_EN.txt	FOOT	LIP	3	1	LIP	n/a	0	10	[0, 0, 0]	n/a	0	1	0	n/a	n/a	0.0	0	0	0	PAL2	0	R1060M
1208.372	0.25	614275	STUDY_ORIENT	n/a	n/a	EAR	SCHOOL	4	4	SCHOOL	n/a	0	10	[0, 0, 0]	n/a	0	1	0	n/a	n/a	0.0	0	0	0	PAL2	0	R1060M
1209.064	4.6	614621	STIM_ON	n/a	n/a	EAR	SCHOOL	4	4	SCHOOL	n/a	0	10	[0, 0, 0]	n/a	1	1	4600	RFG10	RFG11	3000.0	50	230	300	PAL2	0	R1060M
1209.272	4.0	614725	STUDY_PAIR	n/a	wordpools/wordpool_EN.txt	EAR	SCHOOL	4	4	SCHOOL	n/a	0	10	[0, 0, 0]	n/a	1	1	4600	RFG10	RFG11	3000.0	50	230	300	PAL2	0	R1060M
1214.29	0.25	617234	STUDY_ORIENT	n/a	n/a	POLE	SEAT	5	5	SEAT	n/a	0	10	[0, 0, 0]	n/a	0	1	0	n/a	n/a	0.0	0	0	0	PAL2	0	R1060M
1215.19	4.0	617684	STUDY_PAIR	n/a	wordpools/wordpool_EN.txt	POLE	SEAT	5	5	SEAT	n/a	0	10	[0, 0, 0]	n/a	0	1	0	n/a	n/a	0.0	0	0	0	PAL2	0	R1060M
1220.224	0.25	620200	STUDY_ORIENT	n/a	n/a	PURSE	RICE	6	2	RICE	POLE	0	10	[0, 0, 0]	n/a	0	1	0	n/a	n/a	0.0	0	0	0	PAL2	0	R1060M
1220.84	4.6	620508	STIM_ON	n/a	n/a	PURSE	RICE	6	2	RICE	POLE	0	10	[0, 0, 0]	n/a	1	1	4600	RFG10	RFG11	3000.0	50	230	300	PAL2	0	R1060M
1221.058	4.0	620617	STUDY_PAIR	n/a	wordpools/wordpool_EN.txt	PURSE	RICE	6	2	RICE	POLE	0	10	[0, 0, 0]	n/a	1	1	4600	RFG10	RFG11	3000.0	50	230	300	PAL2	0	R1060M
1225.076	0.999	622626	START	n/a	n/a	n/a	n/a	-999	-999	n/a	n/a	-999	10	[-999, -999, -999]	n/a	0	1	0	n/a	n/a	0.0	0	0	0	PAL2	0	R1060M
1226.075	0.017	623126	MATH_START	n/a	n/a	n/a	n/a	-999	-999	n/a	n/a	-999	10	[0, 0, 0]	n/a	0	1	0	n/a	n/a	0.0	0	0	0	PAL2	0	R1060M
1226.092	3.918	623134	PROB	3.896	n/a	n/a	n/a	-999	-999	n/a	n/a	-999	10	[5, 6, 7]	18	0	1	0	n/a	n/a	0.0	0	0	0	PAL2	0	R1060M
1230.01	3.133	625093	PROB	3.106	n/a	n/a	n/a	-999	-999	n/a	n/a	-999	10	[9, 6, 3]	18	0	1	0	n/a	n/a	0.0	0	0	0	PAL2	0	R1060M
1233.143	2.234	626660	PROB	2.213	n/a	n/a	n/a	-999	-999	n/a	n/a	-999	10	[2, 2, 3]	7	0	1	0	n/a	n/a	0.0	0	0	0	PAL2	0	R1060M
1235.377	2.717	627777	PROB	2.683	n/a	n/a	n/a	-999	-999	n/a	n/a	-999	10	[2, 9, 8]	19	0	1	0	n/a	n/a	0.0	0	0	0	PAL2	0	R1060M
1238.094	2.785	629135	PROB	2.751	n/a	n/a	n/a	-999	-999	n/a	n/a	-999	10	[1, 6, 9]	16	0	1	0	n/a	n/a	0.0	0	0	0	PAL2	0	R1060M
1240.879	2.767	630527	PROB	2.741	n/a	n/a	n/a	-999	-999	n/a	n/a	-999	10	[4, 3, 4]	11	0	1	0	n/a	n/a	0.0	0	0	0	PAL2	0	R1060M
1243.646	2.766	631911	PROB	2.766	n/a	n/a	n/a	-999	-999	n/a	n/a	-999	10	[8, 4, 8]	20	0	1	0	n/a	n/a	0.0	0	0	0	PAL2	0	R1060M
1246.412	0.017	633294	STOP	n/a	n/a	n/a	n/a	-999	-999	n/a	n/a	-999	10	[-999, -999, -999]	n/a	0	1	0	n/a	n/a	0.0	0	0	0	PAL2	0	R1060M
1246.429	0.0	633302	MATH_END	n/a	n/a	n/a	n/a	-999	-999	n/a	n/a	-999	10	[0, 0, 0]	n/a	0	1	0	n/a	n/a	0.0	0	0	0	PAL2	0	R1060M
1246.429	0.017	633302	TEST_START	n/a	n/a	n/a	n/a	-999	-999	n/a	n/a	-999	10	[0, 0, 0]	n/a	0	1	0	n/a	n/a	0.0	0	0	0	PAL2	0	R1060M
1246.446	0.25	633311	TEST_ORIENT	n/a	n/a	FOOT	LIP	3	1	LIP	n/a	0	10	[0, 0, 0]	n/a	0	1	0	n/a	n/a	0.0	0	0	0	PAL2	0	R1060M
1247.263	4.0	633719	TEST_PROBE	n/a	wordpools/wordpool_EN.txt	FOOT	LIP	3	1	LIP	n/a	0	10	[0, 0, 0]	n/a	0	1	0	n/a	n/a	0.0	0	0	0	PAL2	0	R1060M
1247.264	5.015	633720	REC_START	n/a	n/a	n/a	n/a	3	-999	n/a	n/a	0	10	[0, 0, 0]	n/a	0	1	0	n/a	n/a	0.0	0	0	0	PAL2	0	R1060M
1252.279	0.001	636227	REC_EVENT	5.015	n/a	FOOT	LIP	3	1	LIP	<>	0	10	[0, 0, 0]	n/a	0	1	0	n/a	n/a	0.0	0	0	0	PAL2	0	R1060M
1252.28	0.017	636228	REC_END	n/a	n/a	n/a	n/a	3	-999	n/a	n/a	-999	10	[0, 0, 0]	n/a	0	1	0	n/a	n/a	0.0	0	0	0	PAL2	0	R1060M
1252.297	0.25	636236	TEST_ORIENT	n/a	n/a	PURSE	RICE	6	2	RICE	POLE	0	10	[0, 0, 0]	n/a	0	1	0	n/a	n/a	0.0	0	0	0	PAL2	0	R1060M
1253.147	4.0	636661	TEST_PROBE	n/a	wordpools/wordpool_EN.txt	PURSE	RICE	6	2	RICE	POLE	0	10	[0, 0, 0]	n/a	0	1	0	n/a	n/a	0.0	0	0	0	PAL2	0	R1060M
1253.148	2.254	636662	REC_START	n/a	n/a	n/a	n/a	6	-999	n/a	POLE	0	10	[0, 0, 0]	n/a	0	1	0	n/a	n/a	0.0	0	0	0	PAL2	0	R1060M
1255.402	2.755	637789	REC_EVENT	2.254	n/a	PURSE	RICE	6	2	RICE	POLE	0	10	[0, 0, 0]	n/a	0	1	0	n/a	n/a	0.0	0	0	0	PAL2	0	R1060M
1258.157	0.008	639166	REC_END	n/a	n/a	n/a	n/a	6	-999	n/a	n/a	-999	10	[0, 0, 0]	n/a	0	1	0	n/a	n/a	0.0	0	0	0	PAL2	0	R1060M
1258.165	0.25	639170	TEST_ORIENT	n/a	n/a	WOOD	CORD	1	3	CORD	n/a	0	10	[0, 0, 0]	n/a	0	1	0	n/a	n/a	0.0	0	0	0	PAL2	0	R1060M
1259.015	4.0	639595	TEST_PROBE	n/a	wordpools/wordpool_EN.txt	WOOD	CORD	1	3	CORD	n/a	0	10	[0, 0, 0]	n/a	0	1	0	n/a	n/a	0.0	0	0	0	PAL2	0	R1060M
1259.016	5.009	639595	REC_START	n/a	n/a	n/a	n/a	1	-999	n/a	n/a	0	10	[0, 0, 0]	n/a	0	1	0	n/a	n/a	0.0	0	0	0	PAL2	0	R1060M
1264.025	0.001	642100	REC_EVENT	5.009	n/a	WOOD	CORD	1	3	CORD	<>	0	10	[0, 0, 0]	n/a	0	1	0	n/a	n/a	0.0	0	0	0	PAL2	0	R1060M
1264.026	0.024	642100	REC_END	n/a	n/a	n/a	n/a	1	-999	n/a	n/a	-999	10	[0, 0, 0]	n/a	0	1	0	n/a	n/a	0.0	0	0	0	PAL2	0	R1060M
1264.05	0.25	642112	TEST_ORIENT	n/a	n/a	EAR	SCHOOL	4	4	SCHOOL	n/a	0	10	[0, 0, 0]	n/a	0	1	0	n/a	n/a	0.0	0	0	0	PAL2	0	R1060M
1265.016	4.0	642595	TEST_PROBE	n/a	wordpools/wordpool_EN.txt	EAR	SCHOOL	4	4	SCHOOL	n/a	0	10	[0, 0, 0]	n/a	0	1	0	n/a	n/a	0.0	0	0	0	PAL2	0	R1060M
1265.017	5.009	642596	REC_START	n/a	n/a	n/a	n/a	4	-999	n/a	n/a	0	10	[0, 0, 0]	n/a	0	1	0	n/a	n/a	0.0	0	0	0	PAL2	0	R1060M
1270.026	0.001	645100	REC_EVENT	5.009	n/a	EAR	SCHOOL	4	4	SCHOOL	<>	0	10	[0, 0, 0]	n/a	0	1	0	n/a	n/a	0.0	0	0	0	PAL2	0	R1060M
1270.027	0.007	645101	REC_END	n/a	n/a	n/a	n/a	4	-999	n/a	n/a	-999	10	[0, 0, 0]	n/a	0	1	0	n/a	n/a	0.0	0	0	0	PAL2	0	R1060M
1270.034	0.25	645104	TEST_ORIENT	n/a	n/a	POLE	SEAT	5	5	SEAT	n/a	0	10	[0, 0, 0]	n/a	0	1	0	n/a	n/a	0.0	0	0	0	PAL2	0	R1060M
1270.885	4.0	645530	TEST_PROBE	n/a	wordpools/wordpool_EN.txt	POLE	SEAT	5	5	SEAT	n/a	0	10	[0, 0, 0]	n/a	0	1	0	n/a	n/a	0.0	0	0	0	PAL2	0	R1060M
1270.886	5.009	645530	REC_START	n/a	n/a	n/a	n/a	5	-999	n/a	n/a	0	10	[0, 0, 0]	n/a	0	1	0	n/a	n/a	0.0	0	0	0	PAL2	0	R1060M
1275.895	0.0	648034	REC_EVENT	5.009	n/a	POLE	SEAT	5	5	SEAT	<>	0	10	[0, 0, 0]	n/a	0	1	0	n/a	n/a	0.0	0	0	0	PAL2	0	R1060M
1275.895	0.008	648034	REC_END	n/a	n/a	n/a	n/a	5	-999	n/a	n/a	-999	10	[0, 0, 0]	n/a	0	1	0	n/a	n/a	0.0	0	0	0	PAL2	0	R1060M
1275.903	0.25	648038	TEST_ORIENT	n/a	n/a	STAR	MOOSE	2	6	STAR	n/a	0	10	[0, 0, 0]	n/a	0	1	0	n/a	n/a	0.0	0	0	0	PAL2	0	R1060M
1276.769	4.0	648471	TEST_PROBE	n/a	wordpools/wordpool_EN.txt	STAR	MOOSE	2	6	STAR	n/a	0	10	[0, 0, 0]	n/a	0	1	0	n/a	n/a	0.0	0	0	0	PAL2	0	R1060M
1276.769	5.015	648471	REC_START	n/a	n/a	n/a	n/a	2	-999	n/a	n/a	0	10	[0, 0, 0]	n/a	0	1	0	n/a	n/a	0.0	0	0	0	PAL2	0	R1060M
1281.784	0.003	650979	REC_EVENT	5.015	n/a	STAR	MOOSE	2	6	STAR	<>	0	10	[0, 0, 0]	n/a	0	1	0	n/a	n/a	0.0	0	0	0	PAL2	0	R1060M
1281.787	3.265	650980	REC_END	n/a	n/a	n/a	n/a	2	-999	n/a	n/a	-999	10	[0, 0, 0]	n/a	0	1	0	n/a	n/a	0.0	0	0	0	PAL2	0	R1060M
1285.052	10.454	652613	ENCODING_START	n/a	n/a	n/a	n/a	0	-999	n/a	n/a	-999	11	[0, 0, 0]	n/a	0	1	0	n/a	n/a	0.0	0	0	0	PAL2	0	R1060M
1295.506	0.25	657839	STUDY_ORIENT	n/a	n/a	DOG	BARN	1	5	BARN	n/a	0	11	[0, 0, 0]	n/a	0	1	0	n/a	n/a	0.0	0	0	0	PAL2	0	R1060M
1296.233	4.6	658203	STIM_ON	n/a	n/a	DOG	BARN	1	5	BARN	n/a	0	11	[0, 0, 0]	n/a	1	1	4600	RFG10	RFG11	3000.0	50	230	300	PAL2	0	R1060M
1296.439	4.0	658306	STUDY_PAIR	n/a	wordpools/wordpool_EN.txt	DOG	BARN	1	5	BARN	n/a	0	11	[0, 0, 0]	n/a	1	1	4600	RFG10	RFG11	3000.0	50	230	300	PAL2	0	R1060M
1301.457	0.25	660815	STUDY_ORIENT	n/a	n/a	ELF	BALL	2	4	ELF	n/a	0	11	[0, 0, 0]	n/a	0	1	0	n/a	n/a	0.0	0	0	0	PAL2	0	R1060M
1302.441	4.0	661307	STUDY_PAIR	n/a	wordpools/wordpool_EN.txt	ELF	BALL	2	4	ELF	n/a	0	11	[0, 0, 0]	n/a	0	1	0	n/a	n/a	0.0	0	0	0	PAL2	0	R1060M
1307.475	0.25	663824	STUDY_ORIENT	n/a	n/a	SHIP	BOARD	3	3	BOARD	n/a	0	11	[0, 0, 0]	n/a	0	1	0	n/a	n/a	0.0	0	0	0	PAL2	0	R1060M
1308.159	4.6	664166	STIM_ON	n/a	n/a	SHIP	BOARD	3	3	BOARD	n/a	0	11	[0, 0, 0]	n/a	1	1	4600	RFG10	RFG11	3000.0	50	230	300	PAL2	0	R1060M
1308.375	4.0	664274	STUDY_PAIR	n/a	wordpools/wordpool_EN.txt	SHIP	BOARD	3	3	BOARD	n/a	0	11	[0, 0, 0]	n/a	1	1	4600	RFG10	RFG11	3000.0	50	230	300	PAL2	0	R1060M
1313.393	0.25	666782	STUDY_ORIENT	n/a	n/a	SPONGE	FOOD	4	2	SPONGE	n/a	0	11	[0, 0, 0]	n/a	0	1	0	n/a	n/a	0.0	0	0	0	PAL2	0	R1060M
1314.193	4.0	667182	STUDY_PAIR	n/a	wordpools/wordpool_EN.txt	SPONGE	FOOD	4	2	SPONGE	n/a	0	11	[0, 0, 0]	n/a	0	1	0	n/a	n/a	0.0	0	0	0	PAL2	0	R1060M
1319.227	0.25	669699	STUDY_ORIENT	n/a	n/a	JAR	RIB	5	1	JAR	n/a	0	11	[0, 0, 0]	n/a	0	1	0	n/a	n/a	0.0	0	0	0	PAL2	0	R1060M
1319.952	4.6	670062	STIM_ON	n/a	n/a	JAR	RIB	5	1	JAR	n/a	0	11	[0, 0, 0]	n/a	1	1	4600	RFG10	RFG11	3000.0	50	230	300	PAL2	0	R1060M
1320.161	4.0	670166	STUDY_PAIR	n/a	wordpools/wordpool_EN.txt	JAR	RIB	5	1	JAR	n/a	0	11	[0, 0, 0]	n/a	1	1	4600	RFG10	RFG11	3000.0	50	230	300	PAL2	0	R1060M
1325.195	0.25	672683	STUDY_ORIENT	n/a	n/a	BOOT	LAND	6	6	LAND	n/a	0	11	[0, 0, 0]	n/a	0	1	0	n/a	n/a	0.0	0	0	0	PAL2	0	R1060M
1326.212	4.0	673192	STUDY_PAIR	n/a	wordpools/wordpool_EN.txt	BOOT	LAND	6	6	LAND	n/a	0	11	[0, 0, 0]	n/a	0	1	0	n/a	n/a	0.0	0	0	0	PAL2	0	R1060M
1330.23	0.999	675200	START	n/a	n/a	n/a	n/a	-999	-999	n/a	n/a	-999	11	[-999, -999, -999]	n/a	0	1	0	n/a	n/a	0.0	0	0	0	PAL2	0	R1060M
1331.229	0.017	675700	MATH_START	n/a	n/a	n/a	n/a	-999	-999	n/a	n/a	-999	11	[0, 0, 0]	n/a	0	1	0	n/a	n/a	0.0	0	0	0	PAL2	0	R1060M
1331.246	3.318	675708	PROB	3.294	n/a	n/a	n/a	-999	-999	n/a	n/a	-999	11	[8, 9, 9]	26	0	1	0	n/a	n/a	0.0	0	0	0	PAL2	0	R1060M
1334.564	2.433	677367	PROB	2.408	n/a	n/a	n/a	-999	-999	n/a	n/a	-999	11	[9, 8, 1]	18	0	1	0	n/a	n/a	0.0	0	0	0	PAL2	0	R1060M
1336.997	2.919	678584	PROB	2.888	n/a	n/a	n/a	-999	-999	n/a	n/a	-999	11	[1, 1, 5]	7	0	1	0	n/a	n/a	0.0	0	0	0	PAL2	0	R1060M
1339.916	3.0	680043	PROB	2.969	n/a	n/a	n/a	-999	-999	n/a	n/a	-999	11	[6, 1, 5]	12	0	1	0	n/a	n/a	0.0	0	0	0	PAL2	0	R1060M
1342.916	3.25	681543	PROB	3.224	n/a	n/a	n/a	-999	-999	n/a	n/a	-999	11	[5, 7, 1]	13	0	1	0	n/a	n/a	0.0	0	0	0	PAL2	0	R1060M
1346.166	5.51	683168	PROB	5.51	n/a	n/a	n/a	-999	-999	n/a	n/a	-999	11	[4, 2, 9]	15	0	1	0	n/a	n/a	0.0	0	0	0	PAL2	0	R1060M
1351.676	0.008	685923	STOP	n/a	n/a	n/a	n/a	-999	-999	n/a	n/a	-999	11	[-999, -999, -999]	n/a	0	1	0	n/a	n/a	0.0	0	0	0	PAL2	0	R1060M
1351.684	0.0	685927	MATH_END	n/a	n/a	n/a	n/a	-999	-999	n/a	n/a	-999	11	[0, 0, 0]	n/a	0	1	0	n/a	n/a	0.0	0	0	0	PAL2	0	R1060M
1351.684	0.016	685927	TEST_START	n/a	n/a	n/a	n/a	-999	-999	n/a	n/a	-999	11	[0, 0, 0]	n/a	0	1	0	n/a	n/a	0.0	0	0	0	PAL2	0	R1060M
1351.7	0.25	685935	TEST_ORIENT	n/a	n/a	JAR	RIB	5	1	JAR	n/a	0	11	[0, 0, 0]	n/a	0	1	0	n/a	n/a	0.0	0	0	0	PAL2	0	R1060M
1352.551	4.0	686360	TEST_PROBE	n/a	wordpools/wordpool_EN.txt	JAR	RIB	5	1	JAR	n/a	0	11	[0, 0, 0]	n/a	0	1	0	n/a	n/a	0.0	0	0	0	PAL2	0	R1060M
1352.551	5.015	686360	REC_START	n/a	n/a	n/a	n/a	5	-999	n/a	n/a	0	11	[0, 0, 0]	n/a	0	1	0	n/a	n/a	0.0	0	0	0	PAL2	0	R1060M
1357.566	0.002	688868	REC_EVENT	5.015	n/a	JAR	RIB	5	1	JAR	<>	0	11	[0, 0, 0]	n/a	0	1	0	n/a	n/a	0.0	0	0	0	PAL2	0	R1060M
1357.568	0.017	688869	REC_END	n/a	n/a	n/a	n/a	5	-999	n/a	n/a	-999	11	[0, 0, 0]	n/a	0	1	0	n/a	n/a	0.0	0	0	0	PAL2	0	R1060M
1357.585	0.25	688877	TEST_ORIENT	n/a	n/a	SPONGE	FOOD	4	2	SPONGE	n/a	0	11	[0, 0, 0]	n/a	0	1	0	n/a	n/a	0.0	0	0	0	PAL2	0	R1060M
1358.368	4.0	689269	TEST_PROBE	n/a	wordpools/wordpool_EN.txt	SPONGE	FOOD	4	2	SPONGE	n/a	0	11	[0, 0, 0]	n/a	0	1	0	n/a	n/a	0.0	0	0	0	PAL2	0	R1060M
1358.369	5.009	689269	REC_START	n/a	n/a	n/a	n/a	4	-999	n/a	n/a	0	11	[0, 0, 0]	n/a	0	1	0	n/a	n/a	0.0	0	0	0	PAL2	0	R1060M
1363.378	0.0	691774	REC_EVENT	5.009	n/a	SPONGE	FOOD	4	2	SPONGE	<>	0	11	[0, 0, 0]	n/a	0	1	0	n/a	n/a	0.0	0	0	0	PAL2	0	R1060M
1363.378	0.008	691774	REC_END	n/a	n/a	n/a	n/a	4	-999	n/a	n/a	-999	11	[0, 0, 0]	n/a	0	1	0	n/a	n/a	0.0	0	0	0	PAL2	0	R1060M
1363.386	0.25	691778	TEST_ORIENT	n/a	n/a	SHIP	BOARD	3	3	BOARD	n/a	0	11	[0, 0, 0]	n/a	0	1	0	n/a	n/a	0.0	0	0	0	PAL2	0	R1060M
1364.286	4.0	692228	TEST_PROBE	n/a	wordpools/wordpool_EN.txt	SHIP	BOARD	3	3	BOARD	n/a	0	11	[0, 0, 0]	n/a	0	1	0	n/a	n/a	0.0	0	0	0	PAL2	0	R1060M
1364.287	5.009	692228	REC_START	n/a	n/a	n/a	n/a	3	-999	n/a	n/a	0	11	[0, 0, 0]	n/a	0	1	0	n/a	n/a	0.0	0	0	0	PAL2	0	R1060M
1369.296	0.001	694732	REC_EVENT	5.009	n/a	SHIP	BOARD	3	3	BOARD	<>	0	11	[0, 0, 0]	n/a	0	1	0	n/a	n/a	0.0	0	0	0	PAL2	0	R1060M
1369.297	0.024	694733	REC_END	n/a	n/a	n/a	n/a	3	-999	n/a	n/a	-999	11	[0, 0, 0]	n/a	0	1	0	n/a	n/a	0.0	0	0	0	PAL2	0	R1060M
1369.321	0.25	694745	TEST_ORIENT	n/a	n/a	ELF	BALL	2	4	ELF	n/a	0	11	[0, 0, 0]	n/a	0	1	0	n/a	n/a	0.0	0	0	0	PAL2	0	R1060M
1370.121	4.0	695145	TEST_PROBE	n/a	wordpools/wordpool_EN.txt	ELF	BALL	2	4	ELF	n/a	0	11	[0, 0, 0]	n/a	0	1	0	n/a	n/a	0.0	0	0	0	PAL2	0	R1060M
1370.121	5.032	695145	REC_START	n/a	n/a	n/a	n/a	2	-999	n/a	n/a	0	11	[0, 0, 0]	n/a	0	1	0	n/a	n/a	0.0	0	0	0	PAL2	0	R1060M
1375.153	0.002	697661	REC_EVENT	5.032	n/a	ELF	BALL	2	4	ELF	<>	0	11	[0, 0, 0]	n/a	0	1	0	n/a	n/a	0.0	0	0	0	PAL2	0	R1060M
1375.155	0.017	697662	REC_END	n/a	n/a	n/a	n/a	2	-999	n/a	n/a	-999	11	[0, 0, 0]	n/a	0	1	0	n/a	n/a	0.0	0	0	0	PAL2	0	R1060M
1375.172	0.25	697670	TEST_ORIENT	n/a	n/a	DOG	BARN	1	5	BARN	n/a	0	11	[0, 0, 0]	n/a	0	1	0	n/a	n/a	0.0	0	0	0	PAL2	0	R1060M
1375.972	4.0	698070	TEST_PROBE	n/a	wordpools/wordpool_EN.txt	DOG	BARN	1	5	BARN	n/a	0	11	[0, 0, 0]	n/a	0	1	0	n/a	n/a	0.0	0	0	0	PAL2	0	R1060M
1375.972	5.015	698070	REC_START	n/a	n/a	n/a	n/a	1	-999	n/a	n/a	0	11	[0, 0, 0]	n/a	0	1	0	n/a	n/a	0.0	0	0	0	PAL2	0	R1060M
1380.987	0.002	700578	REC_EVENT	5.015	n/a	DOG	BARN	1	5	BARN	<>	0	11	[0, 0, 0]	n/a	0	1	0	n/a	n/a	0.0	0	0	0	PAL2	0	R1060M
1380.989	0.017	700579	REC_END	n/a	n/a	n/a	n/a	1	-999	n/a	n/a	-999	11	[0, 0, 0]	n/a	0	1	0	n/a	n/a	0.0	0	0	0	PAL2	0	R1060M
1381.006	0.25	700587	TEST_ORIENT	n/a	n/a	BOOT	LAND	6	6	LAND	n/a	0	11	[0, 0, 0]	n/a	0	1	0	n/a	n/a	0.0	0	0	0	PAL2	0	R1060M
1382.04	0.0	701104	REC_START	n/a	n/a	n/a	n/a	6	-999	n/a	n/a	0	11	[0, 0, 0]	n/a	0	1	0	n/a	n/a	0.0	0	0	0	PAL2	0	R1060M
1382.04	4.0	701104	TEST_PROBE	n/a	wordpools/wordpool_EN.txt	BOOT	LAND	6	6	LAND	n/a	0	11	[0, 0, 0]	n/a	0	1	0	n/a	n/a	0.0	0	0	0	PAL2	0	R1060M
1387.055	0.002	703611	REC_EVENT	5.015	n/a	BOOT	LAND	6	6	LAND	<>	0	11	[0, 0, 0]	n/a	0	1	0	n/a	n/a	0.0	0	0	0	PAL2	0	R1060M
1387.057	132.355	703612	REC_END	n/a	n/a	n/a	n/a	6	-999	n/a	n/a	-999	11	[0, 0, 0]	n/a	0	1	0	n/a	n/a	0.0	0	0	0	PAL2	0	R1060M
1519.412	10.441	769786	ENCODING_START	n/a	n/a	n/a	n/a	0	-999	n/a	n/a	-999	12	[0, 0, 0]	n/a	0	1	0	n/a	n/a	0.0	0	0	0	PAL2	0	R1060M
1529.853	0.25	775007	STUDY_ORIENT	n/a	n/a	RAIN	LAWN	1	1	LAWN	CAGE	0	12	[0, 0, 0]	n/a	0	1	0	n/a	n/a	0.0	0	0	0	PAL2	0	R1060M
1530.488	4.6	775324	STIM_ON	n/a	n/a	RAIN	LAWN	1	1	LAWN	CAGE	0	12	[0, 0, 0]	n/a	1	1	4600	RFG10	RFG11	3000.0	50	230	300	PAL2	0	R1060M
1530.703	4.0	775431	STUDY_PAIR	n/a	wordpools/wordpool_EN.txt	RAIN	LAWN	1	1	LAWN	CAGE	0	12	[0, 0, 0]	n/a	1	1	4600	RFG10	RFG11	3000.0	50	230	300	PAL2	0	R1060M
1535.737	0.25	777948	STUDY_ORIENT	n/a	n/a	CORN	ARM	2	6	CORN	n/a	0	12	[0, 0, 0]	n/a	0	1	0	n/a	n/a	0.0	0	0	0	PAL2	0	R1060M
1536.721	4.0	778440	STUDY_PAIR	n/a	wordpools/wordpool_EN.txt	CORN	ARM	2	6	CORN	n/a	0	12	[0, 0, 0]	n/a	0	1	0	n/a	n/a	0.0	0	0	0	PAL2	0	R1060M
1541.755	0.25	780957	STUDY_ORIENT	n/a	n/a	SAIL	CASH	3	5	SAIL	n/a	0	12	[0, 0, 0]	n/a	0	1	0	n/a	n/a	0.0	0	0	0	PAL2	0	R1060M
1542.398	4.6	781279	STIM_ON	n/a	n/a	SAIL	CASH	3	5	SAIL	n/a	0	12	[0, 0, 0]	n/a	1	1	4600	RFG10	RFG11	3000.0	50	230	300	PAL2	0	R1060M
1542.605	4.0	781382	STUDY_PAIR	n/a	wordpools/wordpool_EN.txt	SAIL	CASH	3	5	SAIL	n/a	0	12	[0, 0, 0]	n/a	1	1	4600	RFG10	RFG11	3000.0	50	230	300	PAL2	0	R1060M
1547.623	0.25	783891	STUDY_ORIENT	n/a	n/a	CAPE	BATH	4	4	BATH	n/a	0	12	[0, 0, 0]	n/a	0	1	0	n/a	n/a	0.0	0	0	0	PAL2	0	R1060M
1548.406	4.0	784283	STUDY_PAIR	n/a	wordpools/wordpool_EN.txt	CAPE	BATH	4	4	BATH	n/a	0	12	[0, 0, 0]	n/a	0	1	0	n/a	n/a	0.0	0	0	0	PAL2	0	R1060M
1553.424	0.25	786791	STUDY_ORIENT	n/a	n/a	DIME	EGG	5	3	DIME	n/a	0	12	[0, 0, 0]	n/a	0	1	0	n/a	n/a	0.0	0	0	0	PAL2	0	R1060M
1554.041	4.6	787100	STIM_ON	n/a	n/a	DIME	EGG	5	3	DIME	n/a	0	12	[0, 0, 0]	n/a	1	1	4600	RFG10	RFG11	3000.0	50	230	300	PAL2	0	R1060M
1554.257	4.0	787208	STUDY_PAIR	n/a	wordpools/wordpool_EN.txt	DIME	EGG	5	3	DIME	n/a	0	12	[0, 0, 0]	n/a	1	1	4600	RFG10	RFG11	3000.0	50	230	300	PAL2	0	R1060M
1559.275	0.25	789717	STUDY_ORIENT	n/a	n/a	STOVE	CAGE	6	2	STOVE	BATH	0	12	[0, 0, 0]	n/a	0	1	0	n/a	n/a	0.0	0	0	0	PAL2	0	R1060M
1560.275	4.0	790217	STUDY_PAIR	n/a	wordpools/wordpool_EN.txt	STOVE	CAGE	6	2	STOVE	BATH	0	12	[0, 0, 0]	n/a	0	1	0	n/a	n/a	0.0	0	0	0	PAL2	0	R1060M
1564.276	1.0	792217	START	n/a	n/a	n/a	n/a	-999	-999	n/a	n/a	-999	12	[-999, -999, -999]	n/a	0	1	0	n/a	n/a	0.0	0	0	0	PAL2	0	R1060M
1565.276	0.017	792717	MATH_START	n/a	n/a	n/a	n/a	-999	-999	n/a	n/a	-999	12	[0, 0, 0]	n/a	0	1	0	n/a	n/a	0.0	0	0	0	PAL2	0	R1060M
1565.293	2.467	792726	PROB	2.447	n/a	n/a	n/a	-999	-999	n/a	n/a	-999	12	[1, 4, 7]	12	0	1	0	n/a	n/a	0.0	0	0	0	PAL2	0	R1060M
1567.76	2.767	793959	PROB	2.748	n/a	n/a	n/a	-999	-999	n/a	n/a	-999	12	[1, 2, 9]	12	0	1	0	n/a	n/a	0.0	0	0	0	PAL2	0	R1060M
1570.527	2.868	795342	PROB	2.837	n/a	n/a	n/a	-999	-999	n/a	n/a	-999	12	[8, 3, 6]	17	0	1	0	n/a	n/a	0.0	0	0	0	PAL2	0	R1060M
1573.395	2.75	796776	PROB	2.721	n/a	n/a	n/a	-999	-999	n/a	n/a	-999	12	[6, 2, 4]	12	0	1	0	n/a	n/a	0.0	0	0	0	PAL2	0	R1060M
1576.145	2.752	798151	PROB	2.724	n/a	n/a	n/a	-999	-999	n/a	n/a	-999	12	[1, 2, 7]	10	0	1	0	n/a	n/a	0.0	0	0	0	PAL2	0	R1060M
1578.897	2.699	799527	PROB	2.667	n/a	n/a	n/a	-999	-999	n/a	n/a	-999	12	[7, 7, 1]	15	0	1	0	n/a	n/a	0.0	0	0	0	PAL2	0	R1060M
1581.596	4.064	800877	PROB	4.064	n/a	n/a	n/a	-999	-999	n/a	n/a	-999	12	[1, 4, 2]	7	0	1	0	n/a	n/a	0.0	0	0	0	PAL2	0	R1060M
1585.66	0.004	802908	STOP	n/a	n/a	n/a	n/a	-999	-999	n/a	n/a	-999	12	[-999, -999, -999]	n/a	0	1	0	n/a	n/a	0.0	0	0	0	PAL2	0	R1060M
1585.664	0.0	802910	MATH_END	n/a	n/a	n/a	n/a	-999	-999	n/a	n/a	-999	12	[0, 0, 0]	n/a	0	1	0	n/a	n/a	0.0	0	0	0	PAL2	0	R1060M
1585.664	0.016	802910	TEST_START	n/a	n/a	n/a	n/a	-999	-999	n/a	n/a	-999	12	[0, 0, 0]	n/a	0	1	0	n/a	n/a	0.0	0	0	0	PAL2	0	R1060M
1585.68	0.25	802918	TEST_ORIENT	n/a	n/a	RAIN	LAWN	1	1	LAWN	CAGE	0	12	[0, 0, 0]	n/a	0	1	0	n/a	n/a	0.0	0	0	0	PAL2	0	R1060M
1586.564	4.0	803360	TEST_PROBE	n/a	wordpools/wordpool_EN.txt	RAIN	LAWN	1	1	LAWN	CAGE	0	12	[0, 0, 0]	n/a	0	1	0	n/a	n/a	0.0	0	0	0	PAL2	0	R1060M
1586.565	1.467	803361	REC_START	n/a	n/a	n/a	n/a	1	-999	n/a	CAGE	0	12	[0, 0, 0]	n/a	0	1	0	n/a	n/a	0.0	0	0	0	PAL2	0	R1060M
1588.032	3.559	804094	REC_EVENT	1.467	n/a	RAIN	LAWN	1	1	LAWN	CAGE	0	12	[0, 0, 0]	n/a	0	1	0	n/a	n/a	0.0	0	0	0	PAL2	0	R1060M
1591.591	0.024	805874	REC_END	n/a	n/a	n/a	n/a	1	-999	n/a	n/a	-999	12	[0, 0, 0]	n/a	0	1	0	n/a	n/a	0.0	0	0	0	PAL2	0	R1060M
1591.615	0.25	805886	TEST_ORIENT	n/a	n/a	STOVE	CAGE	6	2	STOVE	BATH	0	12	[0, 0, 0]	n/a	0	1	0	n/a	n/a	0.0	0	0	0	PAL2	0	R1060M
1592.498	4.0	806327	TEST_PROBE	n/a	wordpools/wordpool_EN.txt	STOVE	CAGE	6	2	STOVE	BATH	0	12	[0, 0, 0]	n/a	0	1	0	n/a	n/a	0.0	0	0	0	PAL2	0	R1060M
1592.499	1.911	806328	REC_START	n/a	n/a	n/a	n/a	6	-999	n/a	BATH	0	12	[0, 0, 0]	n/a	0	1	0	n/a	n/a	0.0	0	0	0	PAL2	0	R1060M
1594.41	3.099	807283	REC_EVENT	1.911	n/a	STOVE	CAGE	6	2	STOVE	BATH	0	12	[0, 0, 0]	n/a	0	1	0	n/a	n/a	0.0	0	0	0	PAL2	0	R1060M
1597.509	0.007	808833	REC_END	n/a	n/a	n/a	n/a	6	-999	n/a	n/a	-999	12	[0, 0, 0]	n/a	0	1	0	n/a	n/a	0.0	0	0	0	PAL2	0	R1060M
1597.516	0.25	808836	TEST_ORIENT	n/a	n/a	DIME	EGG	5	3	DIME	n/a	0	12	[0, 0, 0]	n/a	0	1	0	n/a	n/a	0.0	0	0	0	PAL2	0	R1060M
1598.399	4.0	809278	TEST_PROBE	n/a	wordpools/wordpool_EN.txt	DIME	EGG	5	3	DIME	n/a	0	12	[0, 0, 0]	n/a	0	1	0	n/a	n/a	0.0	0	0	0	PAL2	0	R1060M
1598.4	5.009	809278	REC_START	n/a	n/a	n/a	n/a	5	-999	n/a	n/a	0	12	[0, 0, 0]	n/a	0	1	0	n/a	n/a	0.0	0	0	0	PAL2	0	R1060M
1603.409	0.001	811783	REC_EVENT	5.009	n/a	DIME	EGG	5	3	DIME	<>	0	12	[0, 0, 0]	n/a	0	1	0	n/a	n/a	0.0	0	0	0	PAL2	0	R1060M
1603.41	0.007	811783	REC_END	n/a	n/a	n/a	n/a	5	-999	n/a	n/a	-999	12	[0, 0, 0]	n/a	0	1	0	n/a	n/a	0.0	0	0	0	PAL2	0	R1060M
1603.417	0.25	811787	TEST_ORIENT	n/a	n/a	CAPE	BATH	4	4	BATH	n/a	0	12	[0, 0, 0]	n/a	0	1	0	n/a	n/a	0.0	0	0	0	PAL2	0	R1060M
1604.317	4.0	812236	TEST_PROBE	n/a	wordpools/wordpool_EN.txt	CAPE	BATH	4	4	BATH	n/a	0	12	[0, 0, 0]	n/a	0	1	0	n/a	n/a	0.0	0	0	0	PAL2	0	R1060M
1604.318	5.009	812237	REC_START	n/a	n/a	n/a	n/a	4	-999	n/a	n/a	0	12	[0, 0, 0]	n/a	0	1	0	n/a	n/a	0.0	0	0	0	PAL2	0	R1060M
1609.327	0.001	814741	REC_EVENT	5.009	n/a	CAPE	BATH	4	4	BATH	<>	0	12	[0, 0, 0]	n/a	0	1	0	n/a	n/a	0.0	0	0	0	PAL2	0	R1060M
1609.328	0.007	814742	REC_END	n/a	n/a	n/a	n/a	4	-999	n/a	n/a	-999	12	[0, 0, 0]	n/a	0	1	0	n/a	n/a	0.0	0	0	0	PAL2	0	R1060M
1609.335	0.25	814745	TEST_ORIENT	n/a	n/a	SAIL	CASH	3	5	SAIL	n/a	0	12	[0, 0, 0]	n/a	0	1	0	n/a	n/a	0.0	0	0	0	PAL2	0	R1060M
1610.235	4.0	815195	TEST_PROBE	n/a	wordpools/wordpool_EN.txt	SAIL	CASH	3	5	SAIL	n/a	0	12	[0, 0, 0]	n/a	0	1	0	n/a	n/a	0.0	0	0	0	PAL2	0	R1060M
1610.236	5.009	815196	REC_START	n/a	n/a	n/a	n/a	3	-999	n/a	n/a	0	12	[0, 0, 0]	n/a	0	1	0	n/a	n/a	0.0	0	0	0	PAL2	0	R1060M
1615.245	0.001	817700	REC_EVENT	5.009	n/a	SAIL	CASH	3	5	SAIL	<>	0	12	[0, 0, 0]	n/a	0	1	0	n/a	n/a	0.0	0	0	0	PAL2	0	R1060M
1615.246	0.024	817701	REC_END	n/a	n/a	n/a	n/a	3	-999	n/a	n/a	-999	12	[0, 0, 0]	n/a	0	1	0	n/a	n/a	0.0	0	0	0	PAL2	0	R1060M
1615.27	0.25	817713	TEST_ORIENT	n/a	n/a	CORN	ARM	2	6	CORN	n/a	0	12	[0, 0, 0]	n/a	0	1	0	n/a	n/a	0.0	0	0	0	PAL2	0	R1060M
1616.12	4.0	818138	TEST_PROBE	n/a	wordpools/wordpool_EN.txt	CORN	ARM	2	6	CORN	n/a	0	12	[0, 0, 0]	n/a	0	1	0	n/a	n/a	0.0	0	0	0	PAL2	0	R1060M
1616.12	5.015	818138	REC_START	n/a	n/a	n/a	n/a	2	-999	n/a	n/a	0	12	[0, 0, 0]	n/a	0	1	0	n/a	n/a	0.0	0	0	0	PAL2	0	R1060M
1621.135	0.002	820645	REC_EVENT	5.015	n/a	CORN	ARM	2	6	CORN	<>	0	12	[0, 0, 0]	n/a	0	1	0	n/a	n/a	0.0	0	0	0	PAL2	0	R1060M
1621.137	4.491	820646	REC_END	n/a	n/a	n/a	n/a	2	-999	n/a	n/a	-999	12	[0, 0, 0]	n/a	0	1	0	n/a	n/a	0.0	0	0	0	PAL2	0	R1060M
1625.628	10.446	822891	ENCODING_START	n/a	n/a	n/a	n/a	0	-999	n/a	n/a	-999	13	[0, 0, 0]	n/a	0	1	0	n/a	n/a	0.0	0	0	0	PAL2	0	R1060M
1636.074	0.25	828114	STUDY_ORIENT	n/a	n/a	BRANCH	NEST	1	3	NEST	BRANCH	1	13	[0, 0, 0]	n/a	0	1	0	n/a	n/a	0.0	0	0	0	PAL2	0	R1060M
1636.892	4.0	828523	STUDY_PAIR	n/a	wordpools/wordpool_EN.txt	BRANCH	NEST	1	3	NEST	BRANCH	1	13	[0, 0, 0]	n/a	0	1	0	n/a	n/a	0.0	0	0	0	PAL2	0	R1060M
1641.926	0.25	831040	STUDY_ORIENT	n/a	n/a	SHIRT	TREE	2	6	SHIRT	n/a	0	13	[0, 0, 0]	n/a	0	1	0	n/a	n/a	0.0	0	0	0	PAL2	0	R1060M
1642.909	4.0	831531	STUDY_PAIR	n/a	wordpools/wordpool_EN.txt	SHIRT	TREE	2	6	SHIRT	n/a	0	13	[0, 0, 0]	n/a	0	1	0	n/a	n/a	0.0	0	0	0	PAL2	0	R1060M
1647.927	0.25	834040	STUDY_ORIENT	n/a	n/a	TRAY	VINE	3	1	VINE	BRIDGE	0	13	[0, 0, 0]	n/a	0	1	0	n/a	n/a	0.0	0	0	0	PAL2	0	R1060M
1648.861	4.0	834507	STUDY_PAIR	n/a	wordpools/wordpool_EN.txt	TRAY	VINE	3	1	VINE	BRIDGE	0	13	[0, 0, 0]	n/a	0	1	0	n/a	n/a	0.0	0	0	0	PAL2	0	R1060M
1653.895	0.25	837024	STUDY_ORIENT	n/a	n/a	STRAW	BOOK	4	2	STRAW	n/a	0	13	[0, 0, 0]	n/a	0	1	0	n/a	n/a	0.0	0	0	0	PAL2	0	R1060M
1654.727	4.0	837440	STUDY_PAIR	n/a	wordpools/wordpool_EN.txt	STRAW	BOOK	4	2	STRAW	n/a	0	13	[0, 0, 0]	n/a	0	1	0	n/a	n/a	0.0	0	0	0	PAL2	0	R1060M
1659.745	0.25	839949	STUDY_ORIENT	n/a	n/a	JEEP	VAN	5	5	JEEP	VAN	1	13	[0, 0, 0]	n/a	0	1	0	n/a	n/a	0.0	0	0	0	PAL2	0	R1060M
1660.729	4.0	840441	STUDY_PAIR	n/a	wordpools/wordpool_EN.txt	JEEP	VAN	5	5	JEEP	VAN	1	13	[0, 0, 0]	n/a	0	1	0	n/a	n/a	0.0	0	0	0	PAL2	0	R1060M
1665.763	0.25	842958	STUDY_ORIENT	n/a	n/a	SQUARE	HOOK	6	4	SQUARE	POOL	0	13	[0, 0, 0]	n/a	0	1	0	n/a	n/a	0.0	0	0	0	PAL2	0	R1060M
1666.763	4.0	843458	STUDY_PAIR	n/a	wordpools/wordpool_EN.txt	SQUARE	HOOK	6	4	SQUARE	POOL	0	13	[0, 0, 0]	n/a	0	1	0	n/a	n/a	0.0	0	0	0	PAL2	0	R1060M
1670.764	1.0	845458	START	n/a	n/a	n/a	n/a	-999	-999	n/a	n/a	-999	13	[-999, -999, -999]	n/a	0	1	0	n/a	n/a	0.0	0	0	0	PAL2	0	R1060M
1671.764	0.018	845958	MATH_START	n/a	n/a	n/a	n/a	-999	-999	n/a	n/a	-999	13	[0, 0, 0]	n/a	0	1	0	n/a	n/a	0.0	0	0	0	PAL2	0	R1060M
1671.782	3.349	845967	PROB	3.318	n/a	n/a	n/a	-999	-999	n/a	n/a	-999	13	[2, 5, 1]	8	0	1	0	n/a	n/a	0.0	0	0	0	PAL2	0	R1060M
1675.131	2.384	847642	PROB	2.353	n/a	n/a	n/a	-999	-999	n/a	n/a	-999	13	[4, 2, 1]	7	0	1	0	n/a	n/a	0.0	0	0	0	PAL2	0	R1060M
1677.515	3.084	848833	PROB	3.065	n/a	n/a	n/a	-999	-999	n/a	n/a	-999	13	[6, 5, 9]	20	0	1	0	n/a	n/a	0.0	0	0	0	PAL2	0	R1060M
1680.599	2.534	850375	PROB	2.509	n/a	n/a	n/a	-999	-999	n/a	n/a	-999	13	[3, 8, 9]	21	0	1	0	n/a	n/a	0.0	0	0	0	PAL2	0	R1060M
1683.133	6.235	851642	PROB	6.199	n/a	n/a	n/a	-999	-999	n/a	n/a	-999	13	[7, 8, 6]	21	0	1	0	n/a	n/a	0.0	0	0	0	PAL2	0	R1060M
1689.368	1.62	854760	PROB	1.62	n/a	n/a	n/a	-999	-999	n/a	n/a	-999	13	[1, 5, 5]	11	0	1	0	n/a	n/a	0.0	0	0	0	PAL2	0	R1060M
1690.988	0.013	855570	STOP	n/a	n/a	n/a	n/a	-999	-999	n/a	n/a	-999	13	[-999, -999, -999]	n/a	0	1	0	n/a	n/a	0.0	0	0	0	PAL2	0	R1060M
1691.001	0.0	855576	MATH_END	n/a	n/a	n/a	n/a	-999	-999	n/a	n/a	-999	13	[0, 0, 0]	n/a	0	1	0	n/a	n/a	0.0	0	0	0	PAL2	0	R1060M
1691.001	0.017	855576	TEST_START	n/a	n/a	n/a	n/a	-999	-999	n/a	n/a	-999	13	[0, 0, 0]	n/a	0	1	0	n/a	n/a	0.0	0	0	0	PAL2	0	R1060M
1691.018	0.25	855585	TEST_ORIENT	n/a	n/a	TRAY	VINE	3	1	VINE	BRIDGE	0	13	[0, 0, 0]	n/a	0	1	0	n/a	n/a	0.0	0	0	0	PAL2	0	R1060M
1691.835	4.6	855993	STIM_ON	n/a	n/a	TRAY	VINE	3	1	VINE	BRIDGE	0	13	[0, 0, 0]	n/a	1	1	4600	RFG10	RFG11	3000.0	50	230	300	PAL2	0	R1060M
1692.051	4.0	856101	TEST_PROBE	n/a	wordpools/wordpool_EN.txt	TRAY	VINE	3	1	VINE	BRIDGE	0	13	[0, 0, 0]	n/a	1	1	4600	RFG10	RFG11	3000.0	50	230	300	PAL2	0	R1060M
1692.052	1.568	856102	REC_START	n/a	n/a	n/a	n/a	3	-999	n/a	BRIDGE	0	13	[0, 0, 0]	n/a	1	1	4600	RFG10	RFG11	3000.0	50	230	300	PAL2	0	R1060M
1693.62	3.442	856886	REC_EVENT	1.568	n/a	TRAY	VINE	3	1	VINE	BRIDGE	0	13	[0, 0, 0]	n/a	1	1	4600	RFG10	RFG11	3000.0	50	230	300	PAL2	0	R1060M
1697.062	0.007	858606	REC_END	n/a	n/a	n/a	n/a	3	-999	n/a	n/a	-999	13	[0, 0, 0]	n/a	0	1	0	n/a	n/a	0.0	0	0	0	PAL2	0	R1060M
1697.069	0.25	858610	TEST_ORIENT	n/a	n/a	STRAW	BOOK	4	2	STRAW	n/a	0	13	[0, 0, 0]	n/a	0	1	0	n/a	n/a	0.0	0	0	0	PAL2	0	R1060M
1697.87	4.0	859010	TEST_PROBE	n/a	wordpools/wordpool_EN.txt	STRAW	BOOK	4	2	STRAW	n/a	0	13	[0, 0, 0]	n/a	0	1	0	n/a	n/a	0.0	0	0	0	PAL2	0	R1060M
1697.871	5.009	859011	REC_START	n/a	n/a	n/a	n/a	4	-999	n/a	n/a	0	13	[0, 0, 0]	n/a	0	1	0	n/a	n/a	0.0	0	0	0	PAL2	0	R1060M
1702.88	0.0	861515	REC_EVENT	5.009	n/a	STRAW	BOOK	4	2	STRAW	<>	0	13	[0, 0, 0]	n/a	0	1	0	n/a	n/a	0.0	0	0	0	PAL2	0	R1060M
1702.88	0.008	861515	REC_END	n/a	n/a	n/a	n/a	4	-999	n/a	n/a	-999	13	[0, 0, 0]	n/a	0	1	0	n/a	n/a	0.0	0	0	0	PAL2	0	R1060M
1702.888	0.25	861519	TEST_ORIENT	n/a	n/a	BRANCH	NEST	1	3	NEST	BRANCH	1	13	[0, 0, 0]	n/a	0	1	0	n/a	n/a	0.0	0	0	0	PAL2	0	R1060M
1703.619	4.6	861885	STIM_ON	n/a	n/a	BRANCH	NEST	1	3	NEST	BRANCH	1	13	[0, 0, 0]	n/a	1	1	4600	RFG10	RFG11	3000.0	50	230	300	PAL2	0	R1060M
1703.821	4.0	861986	TEST_PROBE	n/a	wordpools/wordpool_EN.txt	BRANCH	NEST	1	3	NEST	BRANCH	1	13	[0, 0, 0]	n/a	1	1	4600	RFG10	RFG11	3000.0	50	230	300	PAL2	0	R1060M
1703.822	2.62	861986	REC_START	n/a	n/a	n/a	n/a	1	-999	n/a	BRANCH	1	13	[0, 0, 0]	n/a	1	1	4600	RFG10	RFG11	3000.0	50	230	300	PAL2	0	R1060M
1706.442	0.417	863296	REC_EVENT	2.62	n/a	BRANCH	NEST	1	3	NEST	NEST	0	13	[0, 0, 0]	n/a	1	1	4600	RFG10	RFG11	3000.0	50	230	300	PAL2	0	R1060M
1706.859	1.973	863505	REC_EVENT	3.037	n/a	BRANCH	NEST	1	3	NEST	BRANCH	1	13	[0, 0, 0]	n/a	1	1	4600	RFG10	RFG11	3000.0	50	230	300	PAL2	0	R1060M
1708.832	0.007	864491	REC_END	n/a	n/a	n/a	n/a	1	-999	n/a	n/a	-999	13	[0, 0, 0]	n/a	0	1	0	n/a	n/a	0.0	0	0	0	PAL2	0	R1060M
1708.839	0.25	864495	TEST_ORIENT	n/a	n/a	SQUARE	HOOK	6	4	SQUARE	POOL	0	13	[0, 0, 0]	n/a	0	1	0	n/a	n/a	0.0	0	0	0	PAL2	0	R1060M
1709.722	4.0	864936	TEST_PROBE	n/a	wordpools/wordpool_EN.txt	SQUARE	HOOK	6	4	SQUARE	POOL	0	13	[0, 0, 0]	n/a	0	1	0	n/a	n/a	0.0	0	0	0	PAL2	0	R1060M
1709.722	2.27	864936	REC_START	n/a	n/a	n/a	n/a	6	-999	n/a	POOL	0	13	[0, 0, 0]	n/a	0	1	0	n/a	n/a	0.0	0	0	0	PAL2	0	R1060M
1711.992	2.757	866071	REC_EVENT	2.27	n/a	SQUARE	HOOK	6	4	SQUARE	POOL	0	13	[0, 0, 0]	n/a	0	1	0	n/a	n/a	0.0	0	0	0	PAL2	0	R1060M
1714.749	0.007	867449	REC_END	n/a	n/a	n/a	n/a	6	-999	n/a	n/a	-999	13	[0, 0, 0]	n/a	0	1	0	n/a	n/a	0.0	0	0	0	PAL2	0	R1060M
1714.756	0.25	867453	TEST_ORIENT	n/a	n/a	JEEP	VAN	5	5	JEEP	VAN	1	13	[0, 0, 0]	n/a	0	1	0	n/a	n/a	0.0	0	0	0	PAL2	0	R1060M
1715.448	4.6	867799	STIM_ON	n/a	n/a	JEEP	VAN	5	5	JEEP	VAN	1	13	[0, 0, 0]	n/a	1	1	4600	RFG10	RFG11	3000.0	50	230	300	PAL2	0	R1060M
1715.656	4.0	867903	TEST_PROBE	n/a	wordpools/wordpool_EN.txt	JEEP	VAN	5	5	JEEP	VAN	1	13	[0, 0, 0]	n/a	1	1	4600	RFG10	RFG11	3000.0	50	230	300	PAL2	0	R1060M
1715.657	1.335	867903	REC_START	n/a	n/a	n/a	n/a	5	-999	n/a	VAN	1	13	[0, 0, 0]	n/a	1	1	4600	RFG10	RFG11	3000.0	50	230	300	PAL2	0	R1060M
1716.992	3.675	868571	REC_EVENT	1.335	n/a	JEEP	VAN	5	5	JEEP	VAN	1	13	[0, 0, 0]	n/a	1	1	4600	RFG10	RFG11	3000.0	50	230	300	PAL2	0	R1060M
1720.667	0.007	870408	REC_END	n/a	n/a	n/a	n/a	5	-999	n/a	n/a	-999	13	[0, 0, 0]	n/a	0	1	0	n/a	n/a	0.0	0	0	0	PAL2	0	R1060M
1720.674	0.25	870412	TEST_ORIENT	n/a	n/a	SHIRT	TREE	2	6	SHIRT	n/a	0	13	[0, 0, 0]	n/a	0	1	0	n/a	n/a	0.0	0	0	0	PAL2	0	R1060M
1721.607	4.0	870878	TEST_PROBE	n/a	wordpools/wordpool_EN.txt	SHIRT	TREE	2	6	SHIRT	n/a	0	13	[0, 0, 0]	n/a	0	1	0	n/a	n/a	0.0	0	0	0	PAL2	0	R1060M
1721.608	5.009	870879	REC_START	n/a	n/a	n/a	n/a	2	-999	n/a	n/a	0	13	[0, 0, 0]	n/a	0	1	0	n/a	n/a	0.0	0	0	0	PAL2	0	R1060M
1726.617	0.001	873383	REC_EVENT	5.009	n/a	SHIRT	TREE	2	6	SHIRT	<>	0	13	[0, 0, 0]	n/a	0	1	0	n/a	n/a	0.0	0	0	0	PAL2	0	R1060M
1726.618	37.418	873384	REC_END	n/a	n/a	n/a	n/a	2	-999	n/a	n/a	-999	13	[0, 0, 0]	n/a	0	1	0	n/a	n/a	0.0	0	0	0	PAL2	0	R1060M
1764.036	10.449	892092	ENCODING_START	n/a	n/a	n/a	n/a	0	-999	n/a	n/a	-999	14	[0, 0, 0]	n/a	0	1	0	n/a	n/a	0.0	0	0	0	PAL2	0	R1060M
1774.485	0.25	897316	STUDY_ORIENT	n/a	n/a	SMILE	ICE	1	3	SMILE	n/a	0	14	[0, 0, 0]	n/a	0	1	0	n/a	n/a	0.0	0	0	0	PAL2	0	R1060M
1775.352	4.0	897749	STUDY_PAIR	n/a	wordpools/wordpool_EN.txt	SMILE	ICE	1	3	SMILE	n/a	0	14	[0, 0, 0]	n/a	0	1	0	n/a	n/a	0.0	0	0	0	PAL2	0	R1060M
1780.386	0.25	900266	STUDY_ORIENT	n/a	n/a	JET	POND	2	6	POND	n/a	0	14	[0, 0, 0]	n/a	0	1	0	n/a	n/a	0.0	0	0	0	PAL2	0	R1060M
1781.369	4.0	900758	STUDY_PAIR	n/a	wordpools/wordpool_EN.txt	JET	POND	2	6	POND	n/a	0	14	[0, 0, 0]	n/a	0	1	0	n/a	n/a	0.0	0	0	0	PAL2	0	R1060M
1786.387	0.25	903267	STUDY_ORIENT	n/a	n/a	ROAD	BED	3	1	ROAD	n/a	0	14	[0, 0, 0]	n/a	0	1	0	n/a	n/a	0.0	0	0	0	PAL2	0	R1060M
1787.27	4.0	903708	STUDY_PAIR	n/a	wordpools/wordpool_EN.txt	ROAD	BED	3	1	ROAD	n/a	0	14	[0, 0, 0]	n/a	0	1	0	n/a	n/a	0.0	0	0	0	PAL2	0	R1060M
1792.288	0.25	906217	STUDY_ORIENT	n/a	n/a	SWORD	ROOT	4	2	ROOT	TREE	0	14	[0, 0, 0]	n/a	0	1	0	n/a	n/a	0.0	0	0	0	PAL2	0	R1060M
1793.138	4.0	906642	STUDY_PAIR	n/a	wordpools/wordpool_EN.txt	SWORD	ROOT	4	2	ROOT	TREE	0	14	[0, 0, 0]	n/a	0	1	0	n/a	n/a	0.0	0	0	0	PAL2	0	R1060M
1798.156	0.25	909151	STUDY_ORIENT	n/a	n/a	BIRD	SNAKE	5	5	SNAKE	n/a	0	14	[0, 0, 0]	n/a	0	1	0	n/a	n/a	0.0	0	0	0	PAL2	0	R1060M
1799.173	4.0	909659	STUDY_PAIR	n/a	wordpools/wordpool_EN.txt	BIRD	SNAKE	5	5	SNAKE	n/a	0	14	[0, 0, 0]	n/a	0	1	0	n/a	n/a	0.0	0	0	0	PAL2	0	R1060M
1804.207	0.25	912176	STUDY_ORIENT	n/a	n/a	STOOL	CAVE	6	4	STOOL	n/a	0	14	[0, 0, 0]	n/a	0	1	0	n/a	n/a	0.0	0	0	0	PAL2	0	R1060M
1805.124	4.0	912635	STUDY_PAIR	n/a	wordpools/wordpool_EN.txt	STOOL	CAVE	6	4	STOOL	n/a	0	14	[0, 0, 0]	n/a	0	1	0	n/a	n/a	0.0	0	0	0	PAL2	0	R1060M
1809.142	1.0	914643	START	n/a	n/a	n/a	n/a	-999	-999	n/a	n/a	-999	14	[-999, -999, -999]	n/a	0	1	0	n/a	n/a	0.0	0	0	0	PAL2	0	R1060M
1810.142	0.016	915143	MATH_START	n/a	n/a	n/a	n/a	-999	-999	n/a	n/a	-999	14	[0, 0, 0]	n/a	0	1	0	n/a	n/a	0.0	0	0	0	PAL2	0	R1060M
1810.158	3.001	915151	PROB	2.982	n/a	n/a	n/a	-999	-999	n/a	n/a	-999	14	[8, 2, 3]	13	0	1	0	n/a	n/a	0.0	0	0	0	PAL2	0	R1060M
1813.159	2.6	916652	PROB	2.581	n/a	n/a	n/a	-999	-999	n/a	n/a	-999	14	[7, 3, 6]	16	0	1	0	n/a	n/a	0.0	0	0	0	PAL2	0	R1060M
1815.759	2.668	917952	PROB	2.637	n/a	n/a	n/a	-999	-999	n/a	n/a	-999	14	[4, 7, 8]	19	0	1	0	n/a	n/a	0.0	0	0	0	PAL2	0	R1060M
1818.427	2.485	919286	PROB	2.45	n/a	n/a	n/a	-999	-999	n/a	n/a	-999	14	[7, 2, 7]	16	0	1	0	n/a	n/a	0.0	0	0	0	PAL2	0	R1060M
1820.912	2.749	920528	PROB	2.724	n/a	n/a	n/a	-999	-999	n/a	n/a	-999	14	[9, 4, 6]	19	0	1	0	n/a	n/a	0.0	0	0	0	PAL2	0	R1060M
1823.661	2.85	921903	PROB	2.831	n/a	n/a	n/a	-999	-999	n/a	n/a	-999	14	[8, 9, 6]	22	0	1	0	n/a	n/a	0.0	0	0	0	PAL2	0	R1060M
1826.511	2.568	923327	PROB	2.541	n/a	n/a	n/a	-999	-999	n/a	n/a	-999	14	[8, 2, 7]	17	0	1	0	n/a	n/a	0.0	0	0	0	PAL2	0	R1060M
1829.079	2.637	924611	PROB	2.637	n/a	n/a	n/a	-999	-999	n/a	n/a	-999	14	[1, 7, 7]	15	0	1	0	n/a	n/a	0.0	0	0	0	PAL2	0	R1060M
1831.716	0.013	925930	STOP	n/a	n/a	n/a	n/a	-999	-999	n/a	n/a	-999	14	[-999, -999, -999]	n/a	0	1	0	n/a	n/a	0.0	0	0	0	PAL2	0	R1060M
1831.729	0.0	925936	MATH_END	n/a	n/a	n/a	n/a	-999	-999	n/a	n/a	-999	14	[0, 0, 0]	n/a	0	1	0	n/a	n/a	0.0	0	0	0	PAL2	0	R1060M
1831.729	0.017	925936	TEST_START	n/a	n/a	n/a	n/a	-999	-999	n/a	n/a	-999	14	[0, 0, 0]	n/a	0	1	0	n/a	n/a	0.0	0	0	0	PAL2	0	R1060M
1831.746	0.25	925945	TEST_ORIENT	n/a	n/a	ROAD	BED	3	1	ROAD	n/a	0	14	[0, 0, 0]	n/a	0	1	0	n/a	n/a	0.0	0	0	0	PAL2	0	R1060M
1832.455	4.6	926299	STIM_ON	n/a	n/a	ROAD	BED	3	1	ROAD	n/a	0	14	[0, 0, 0]	n/a	1	1	4600	RFG10	RFG11	3000.0	50	230	300	PAL2	0	R1060M
1832.663	0.0	926403	REC_START	n/a	n/a	n/a	n/a	3	-999	n/a	n/a	0	14	[0, 0, 0]	n/a	1	1	4600	RFG10	RFG11	3000.0	50	230	300	PAL2	0	R1060M
1832.663	4.0	926403	TEST_PROBE	n/a	wordpools/wordpool_EN.txt	ROAD	BED	3	1	ROAD	n/a	0	14	[0, 0, 0]	n/a	1	1	4600	RFG10	RFG11	3000.0	50	230	300	PAL2	0	R1060M
1837.678	0.002	928911	REC_EVENT	5.015	n/a	ROAD	BED	3	1	ROAD	<>	0	14	[0, 0, 0]	n/a	0	1	0	n/a	n/a	0.0	0	0	0	PAL2	0	R1060M
1837.68	0.017	928912	REC_END	n/a	n/a	n/a	n/a	3	-999	n/a	n/a	-999	14	[0, 0, 0]	n/a	0	1	0	n/a	n/a	0.0	0	0	0	PAL2	0	R1060M
1837.697	0.25	928920	TEST_ORIENT	n/a	n/a	SWORD	ROOT	4	2	ROOT	TREE	0	14	[0, 0, 0]	n/a	0	1	0	n/a	n/a	0.0	0	0	0	PAL2	0	R1060M
1838.631	4.0	929387	TEST_PROBE	n/a	wordpools/wordpool_EN.txt	SWORD	ROOT	4	2	ROOT	TREE	0	14	[0, 0, 0]	n/a	0	1	0	n/a	n/a	0.0	0	0	0	PAL2	0	R1060M
1838.631	2.518	929387	REC_START	n/a	n/a	n/a	n/a	4	-999	n/a	TREE	0	14	[0, 0, 0]	n/a	0	1	0	n/a	n/a	0.0	0	0	0	PAL2	0	R1060M
1841.149	2.499	930646	REC_EVENT	2.518	n/a	SWORD	ROOT	4	2	ROOT	TREE	0	14	[0, 0, 0]	n/a	0	1	0	n/a	n/a	0.0	0	0	0	PAL2	0	R1060M
1843.648	0.017	931895	REC_END	n/a	n/a	n/a	n/a	4	-999	n/a	n/a	-999	14	[0, 0, 0]	n/a	0	1	0	n/a	n/a	0.0	0	0	0	PAL2	0	R1060M
1843.665	0.25	931904	TEST_ORIENT	n/a	n/a	SMILE	ICE	1	3	SMILE	n/a	0	14	[0, 0, 0]	n/a	0	1	0	n/a	n/a	0.0	0	0	0	PAL2	0	R1060M
1844.252	4.6	932197	STIM_ON	n/a	n/a	SMILE	ICE	1	3	SMILE	n/a	0	14	[0, 0, 0]	n/a	1	1	4600	RFG10	RFG11	3000.0	50	230	300	PAL2	0	R1060M
1844.465	4.0	932304	TEST_PROBE	n/a	wordpools/wordpool_EN.txt	SMILE	ICE	1	3	SMILE	n/a	0	14	[0, 0, 0]	n/a	1	1	4600	RFG10	RFG11	3000.0	50	230	300	PAL2	0	R1060M
1844.466	5.009	932304	REC_START	n/a	n/a	n/a	n/a	1	-999	n/a	n/a	0	14	[0, 0, 0]	n/a	1	1	4600	RFG10	RFG11	3000.0	50	230	300	PAL2	0	R1060M
