onset	duration	sample	trial_type	response_time	stim_file	study_1	study_2	serialpos	probepos	probe_word	resp_word	correct	list	test	answer	stimulation	stim_list	stim_duration	anode_label	cathode_label	amplitude	pulse_freq	n_pulses	pulse_width	experiment	session	subject
0.0	105.832	-1	SESS_START	n/a	n/a	n/a	n/a	-999	-999	n/a	n/a	-999	-999	[0, 0, 0]	n/a	0	0	0	n/a	n/a	0.0	0	0	0	PAL2	0	R1121M
105.832	1.014	-1	START	n/a	n/a	n/a	n/a	-999	-999	n/a	n/a	-999	-1	[-999, -999, -999]	n/a	0	-999	0	n/a	n/a	0.0	0	0	0	PAL2	0	R1121M
106.846	7.268	-1	PROB	7.236	n/a	n/a	n/a	-999	-999	n/a	n/a	-999	-1	[2, 5, 8]	15	0	-999	0	n/a	n/a	0.0	0	0	0	PAL2	0	R1121M
114.114	10.436	-1	PROB	10.408	n/a	n/a	n/a	-999	-999	n/a	n/a	-999	-1	[8, 5, 5]	17	0	-999	0	n/a	n/a	0.0	0	0	0	PAL2	0	R1121M
124.55	7.268	-1	PROB	7.268	n/a	n/a	n/a	-999	-999	n/a	n/a	-999	-1	[9, 3, 6]	18	0	-999	0	n/a	n/a	0.0	0	0	0	PAL2	0	R1121M
131.818	1138.299	-1	STOP	n/a	n/a	n/a	n/a	-999	-999	n/a	n/a	-999	-1	[-999, -999, -999]	n/a	0	-999	0	n/a	n/a	0.0	0	0	0	PAL2	0	R1121M
1270.117	74.606	189164	SESS_START	n/a	n/a	n/a	n/a	-999	-999	n/a	n/a	-999	-999	[0, 0, 0]	n/a	0	0	0	n/a	n/a	0.0	0	0	0	PAL2	0	R1121M
1344.723	1.016	226464	START	n/a	n/a	n/a	n/a	-999	-999	n/a	n/a	-999	1	[-999, -999, -999]	n/a	0	1	0	n/a	n/a	0.0	0	0	0	PAL2	0	R1121M
1345.739	42.807	226972	PROB	42.807	n/a	n/a	n/a	-999	-999	n/a	n/a	-999	1	[7, 1, 9]	17	0	1	0	n/a	n/a	0.0	0	0	0	PAL2	0	R1121M
1388.546	115.919	248374	STOP	n/a	n/a	n/a	n/a	-999	-999	n/a	n/a	-999	1	[-999, -999, -999]	n/a	0	1	0	n/a	n/a	0.0	0	0	0	PAL2	0	R1121M
1504.465	10.441	306329	ENCODING_START	n/a	n/a	n/a	n/a	0	-999	n/a	n/a	-999	1	[0, 0, 0]	n/a	0	1	0	n/a	n/a	0.0	0	0	0	PAL2	0	R1121M
1514.906	0.25	311549	STUDY_ORIENT	n/a	n/a	ROCK	CLOWN	1	1	CLOWN	ARK	0	1	[0, 0, 0]	n/a	0	1	0	n/a	n/a	0.0	0	0	0	PAL2	0	R1121M
1515.857	4.0	312024	STUDY_PAIR	n/a	wordpools/wordpool_EN.txt	ROCK	CLOWN	1	1	CLOWN	ARK	0	1	[0, 0, 0]	n/a	0	1	0	n/a	n/a	0.0	0	0	0	PAL2	0	R1121M
1520.891	0.25	314541	STUDY_ORIENT	n/a	n/a	ARK	STEAK	2	2	STEAK	ARK	1	1	[0, 0, 0]	n/a	0	1	0	n/a	n/a	0.0	0	0	0	PAL2	0	R1121M
1521.691	4.0	314941	STUDY_PAIR	n/a	wordpools/wordpool_EN.txt	ARK	STEAK	2	2	STEAK	ARK	1	1	[0, 0, 0]	n/a	0	1	0	n/a	n/a	0.0	0	0	0	PAL2	0	R1121M
1526.725	0.25	317458	STUDY_ORIENT	n/a	n/a	FISH	ROSE	3	5	ROSE	n/a	0	1	[0, 0, 0]	n/a	0	1	0	n/a	n/a	0.0	0	0	0	PAL2	0	R1121M
1527.593	4.0	317892	STUDY_PAIR	n/a	wordpools/wordpool_EN.txt	FISH	ROSE	3	5	ROSE	n/a	0	1	[0, 0, 0]	n/a	0	1	0	n/a	n/a	0.0	0	0	0	PAL2	0	R1121M
1532.61	0.25	320400	STUDY_ORIENT	n/a	n/a	SMOKE	JUICE	4	4	JUICE	n/a	0	1	[0, 0, 0]	n/a	0	1	0	n/a	n/a	0.0	0	0	0	PAL2	0	R1121M
1533.426	4.0	320808	STUDY_PAIR	n/a	wordpools/wordpool_EN.txt	SMOKE	JUICE	4	4	JUICE	n/a	0	1	[0, 0, 0]	n/a	0	1	0	n/a	n/a	0.0	0	0	0	PAL2	0	R1121M
1538.444	0.25	323317	STUDY_ORIENT	n/a	n/a	TIE	SIGN	5	3	TIE	n/a	0	1	[0, 0, 0]	n/a	0	1	0	n/a	n/a	0.0	0	0	0	PAL2	0	R1121M
1539.245	4.0	323717	STUDY_PAIR	n/a	wordpools/wordpool_EN.txt	TIE	SIGN	5	3	TIE	n/a	0	1	[0, 0, 0]	n/a	0	1	0	n/a	n/a	0.0	0	0	0	PAL2	0	R1121M
1544.279	0.25	326234	STUDY_ORIENT	n/a	n/a	BRICK	OAR	6	6	OAR	n/a	0	1	[0, 0, 0]	n/a	0	1	0	n/a	n/a	0.0	0	0	0	PAL2	0	R1121M
1545.246	4.0	326718	STUDY_PAIR	n/a	wordpools/wordpool_EN.txt	BRICK	OAR	6	6	OAR	n/a	0	1	[0, 0, 0]	n/a	0	1	0	n/a	n/a	0.0	0	0	0	PAL2	0	R1121M
1549.264	0.999	328726	START	n/a	n/a	n/a	n/a	-999	-999	n/a	n/a	-999	2	[-999, -999, -999]	n/a	0	1	0	n/a	n/a	0.0	0	0	0	PAL2	0	R1121M
1550.263	0.017	329226	MATH_START	n/a	n/a	n/a	n/a	-999	-999	n/a	n/a	-999	1	[0, 0, 0]	n/a	0	1	0	n/a	n/a	0.0	0	0	0	PAL2	0	R1121M
1550.28	5.901	329234	PROB	5.881	n/a	n/a	n/a	-999	-999	n/a	n/a	-999	2	[5, 5, 2]	12	0	1	0	n/a	n/a	0.0	0	0	0	PAL2	0	R1121M
1556.181	14.66	332185	PROB	14.66	n/a	n/a	n/a	-999	-999	n/a	n/a	-999	2	[4, 8, 1]	14	0	1	0	n/a	n/a	0.0	0	0	0	PAL2	0	R1121M
1570.841	0.01	339514	STOP	n/a	n/a	n/a	n/a	-999	-999	n/a	n/a	-999	2	[-999, -999, -999]	n/a	0	1	0	n/a	n/a	0.0	0	0	0	PAL2	0	R1121M
1570.851	0.0	339519	MATH_END	n/a	n/a	n/a	n/a	-999	-999	n/a	n/a	-999	1	[0, 0, 0]	n/a	0	1	0	n/a	n/a	0.0	0	0	0	PAL2	0	R1121M
1570.851	0.016	339519	TEST_START	n/a	n/a	n/a	n/a	-999	-999	n/a	n/a	-999	1	[0, 0, 0]	n/a	0	1	0	n/a	n/a	0.0	0	0	0	PAL2	0	R1121M
1570.867	0.25	339527	TEST_ORIENT	n/a	n/a	ROCK	CLOWN	1	1	CLOWN	ARK	0	1	[0, 0, 0]	n/a	0	1	0	n/a	n/a	0.0	0	0	0	PAL2	0	R1121M
1571.718	4.0	339953	TEST_PROBE	n/a	wordpools/wordpool_EN.txt	ROCK	CLOWN	1	1	CLOWN	ARK	0	1	[0, 0, 0]	n/a	0	1	0	n/a	n/a	0.0	0	0	0	PAL2	0	R1121M
1571.718	3.01	339953	REC_START	n/a	n/a	n/a	n/a	1	-999	n/a	ARK	0	1	[0, 0, 0]	n/a	0	1	0	n/a	n/a	0.0	0	0	0	PAL2	0	R1121M
1574.728	1.112	341457	REC_EVENT	3.01	n/a	ROCK	CLOWN	1	1	CLOWN	CLOWN	0	1	[0, 0, 0]	n/a	0	1	0	n/a	n/a	0.0	0	0	0	PAL2	0	R1121M
1575.84	0.895	342013	REC_EVENT	4.122	n/a	ROCK	CLOWN	1	1	CLOWN	ARK	0	1	[0, 0, 0]	n/a	0	1	0	n/a	n/a	0.0	0	0	0	PAL2	0	R1121M
1576.735	0.017	342461	REC_END	n/a	n/a	n/a	n/a	1	-999	n/a	n/a	-999	1	[0, 0, 0]	n/a	0	1	0	n/a	n/a	0.0	0	0	0	PAL2	0	R1121M
1576.752	0.25	342469	TEST_ORIENT	n/a	n/a	ARK	STEAK	2	2	STEAK	ARK	1	1	[0, 0, 0]	n/a	0	1	0	n/a	n/a	0.0	0	0	0	PAL2	0	R1121M
1577.547	4.6	342867	STIM_ON	n/a	n/a	ARK	STEAK	2	2	STEAK	ARK	1	1	[0, 0, 0]	n/a	1	1	4600	RFG1	RFG2	2000.0	50	230	300	PAL2	0	R1121M
1577.752	4.0	342969	TEST_PROBE	n/a	wordpools/wordpool_EN.txt	ARK	STEAK	2	2	STEAK	ARK	1	1	[0, 0, 0]	n/a	1	1	4600	RFG1	RFG2	2000.0	50	230	300	PAL2	0	R1121M
1577.753	1.478	342970	REC_START	n/a	n/a	n/a	n/a	2	-999	n/a	ARK	1	1	[0, 0, 0]	n/a	1	1	4600	RFG1	RFG2	2000.0	50	230	300	PAL2	0	R1121M
1579.231	0.4	343709	REC_EVENT	1.478	n/a	ARK	STEAK	2	2	STEAK	<>	0	1	[0, 0, 0]	n/a	1	1	4600	RFG1	RFG2	2000.0	50	230	300	PAL2	0	R1121M
1579.631	0.455	343909	REC_EVENT	1.878	n/a	ARK	STEAK	2	2	STEAK	ARK	1	1	[0, 0, 0]	n/a	1	1	4600	RFG1	RFG2	2000.0	50	230	300	PAL2	0	R1121M
1580.086	0.864	344136	REC_EVENT	2.333	n/a	ARK	STEAK	2	2	STEAK	STEAK	0	1	[0, 0, 0]	n/a	1	1	4600	RFG1	RFG2	2000.0	50	230	300	PAL2	0	R1121M
1580.95	1.811	344568	REC_EVENT	3.197	n/a	ARK	STEAK	2	2	STEAK	ARK	1	1	[0, 0, 0]	n/a	1	1	4600	RFG1	RFG2	2000.0	50	230	300	PAL2	0	R1121M
1582.761	0.009	345474	REC_END	n/a	n/a	n/a	n/a	2	-999	n/a	n/a	-999	1	[0, 0, 0]	n/a	0	1	0	n/a	n/a	0.0	0	0	0	PAL2	0	R1121M
1582.77	0.25	345478	TEST_ORIENT	n/a	n/a	TIE	SIGN	5	3	TIE	n/a	0	1	[0, 0, 0]	n/a	0	1	0	n/a	n/a	0.0	0	0	0	PAL2	0	R1121M
1583.803	4.0	345995	TEST_PROBE	n/a	wordpools/wordpool_EN.txt	TIE	SIGN	5	3	TIE	n/a	0	1	[0, 0, 0]	n/a	0	1	0	n/a	n/a	0.0	0	0	0	PAL2	0	R1121M
1583.804	4.659	345995	REC_START	n/a	n/a	n/a	n/a	5	-999	n/a	n/a	0	1	[0, 0, 0]	n/a	0	1	0	n/a	n/a	0.0	0	0	0	PAL2	0	R1121M
1588.463	0.349	348324	REC_EVENT	4.659	n/a	TIE	SIGN	5	3	TIE	<>	0	1	[0, 0, 0]	n/a	0	1	0	n/a	n/a	0.0	0	0	0	PAL2	0	R1121M
1588.812	0.009	348499	REC_END	n/a	n/a	n/a	n/a	5	-999	n/a	n/a	-999	1	[0, 0, 0]	n/a	0	1	0	n/a	n/a	0.0	0	0	0	PAL2	0	R1121M
1588.821	0.25	348503	TEST_ORIENT	n/a	n/a	SMOKE	JUICE	4	4	JUICE	n/a	0	1	[0, 0, 0]	n/a	0	1	0	n/a	n/a	0.0	0	0	0	PAL2	0	R1121M
1589.578	4.6	348882	STIM_ON	n/a	n/a	SMOKE	JUICE	4	4	JUICE	n/a	0	1	[0, 0, 0]	n/a	1	1	4600	RFG1	RFG2	2000.0	50	230	300	PAL2	0	R1121M
1589.788	4.0	348987	TEST_PROBE	n/a	wordpools/wordpool_EN.txt	SMOKE	JUICE	4	4	JUICE	n/a	0	1	[0, 0, 0]	n/a	1	1	4600	RFG1	RFG2	2000.0	50	230	300	PAL2	0	R1121M
1589.788	4.615	348987	REC_START	n/a	n/a	n/a	n/a	4	-999	n/a	n/a	0	1	[0, 0, 0]	n/a	1	1	4600	RFG1	RFG2	2000.0	50	230	300	PAL2	0	R1121M
1594.403	0.402	351294	REC_EVENT	4.615	n/a	SMOKE	JUICE	4	4	JUICE	<>	0	1	[0, 0, 0]	n/a	0	1	0	n/a	n/a	0.0	0	0	0	PAL2	0	R1121M
1594.805	0.017	351495	REC_END	n/a	n/a	n/a	n/a	4	-999	n/a	n/a	-999	1	[0, 0, 0]	n/a	0	1	0	n/a	n/a	0.0	0	0	0	PAL2	0	R1121M
1594.822	0.25	351504	TEST_ORIENT	n/a	n/a	FISH	ROSE	3	5	ROSE	n/a	0	1	[0, 0, 0]	n/a	0	1	0	n/a	n/a	0.0	0	0	0	PAL2	0	R1121M
1595.806	4.0	351996	TEST_PROBE	n/a	wordpools/wordpool_EN.txt	FISH	ROSE	3	5	ROSE	n/a	0	1	[0, 0, 0]	n/a	0	1	0	n/a	n/a	0.0	0	0	0	PAL2	0	R1121M
1595.806	4.715	351996	REC_START	n/a	n/a	n/a	n/a	3	-999	n/a	n/a	0	1	[0, 0, 0]	n/a	0	1	0	n/a	n/a	0.0	0	0	0	PAL2	0	R1121M
1600.521	0.302	354353	REC_EVENT	4.715	n/a	FISH	ROSE	3	5	ROSE	<>	0	1	[0, 0, 0]	n/a	0	1	0	n/a	n/a	0.0	0	0	0	PAL2	0	R1121M
1600.823	0.017	354504	REC_END	n/a	n/a	n/a	n/a	3	-999	n/a	n/a	-999	1	[0, 0, 0]	n/a	0	1	0	n/a	n/a	0.0	0	0	0	PAL2	0	R1121M
1600.84	0.25	354512	TEST_ORIENT	n/a	n/a	BRICK	OAR	6	6	OAR	n/a	0	1	[0, 0, 0]	n/a	0	1	0	n/a	n/a	0.0	0	0	0	PAL2	0	R1121M
1601.621	4.6	354903	STIM_ON	n/a	n/a	BRICK	OAR	6	6	OAR	n/a	0	1	[0, 0, 0]	n/a	1	1	4600	RFG1	RFG2	2000.0	50	230	300	PAL2	0	R1121M
1601.824	4.0	355004	TEST_PROBE	n/a	wordpools/wordpool_EN.txt	BRICK	OAR	6	6	OAR	n/a	0	1	[0, 0, 0]	n/a	1	1	4600	RFG1	RFG2	2000.0	50	230	300	PAL2	0	R1121M
1601.824	4.615	355004	REC_START	n/a	n/a	n/a	n/a	6	-999	n/a	n/a	0	1	[0, 0, 0]	n/a	1	1	4600	RFG1	RFG2	2000.0	50	230	300	PAL2	0	R1121M
1606.439	0.402	357312	REC_EVENT	4.615	n/a	BRICK	OAR	6	6	OAR	<>	0	1	[0, 0, 0]	n/a	0	1	0	n/a	n/a	0.0	0	0	0	PAL2	0	R1121M
1606.841	2.944	357513	REC_END	n/a	n/a	n/a	n/a	6	-999	n/a	n/a	-999	1	[0, 0, 0]	n/a	0	1	0	n/a	n/a	0.0	0	0	0	PAL2	0	R1121M
1609.785	10.442	358985	ENCODING_START	n/a	n/a	n/a	n/a	0	-999	n/a	n/a	-999	2	[0, 0, 0]	n/a	0	1	0	n/a	n/a	0.0	0	0	0	PAL2	0	R1121M
1620.227	0.25	364205	STUDY_ORIENT	n/a	n/a	SNAIL	GLASS	1	3	GLASS	n/a	0	2	[0, 0, 0]	n/a	0	1	0	n/a	n/a	0.0	0	0	0	PAL2	0	R1121M
1620.992	4.6	364588	STIM_ON	n/a	n/a	SNAIL	GLASS	1	3	GLASS	n/a	0	2	[0, 0, 0]	n/a	1	1	4600	RFG1	RFG2	2000.0	50	230	300	PAL2	0	R1121M
1621.194	4.0	364689	STUDY_PAIR	n/a	wordpools/wordpool_EN.txt	SNAIL	GLASS	1	3	GLASS	n/a	0	2	[0, 0, 0]	n/a	1	1	4600	RFG1	RFG2	2000.0	50	230	300	PAL2	0	R1121M
1626.212	0.25	367197	STUDY_ORIENT	n/a	n/a	SEED	TOY	2	6	SEED	n/a	0	2	[0, 0, 0]	n/a	0	1	0	n/a	n/a	0.0	0	0	0	PAL2	0	R1121M
1627.179	4.0	367681	STUDY_PAIR	n/a	wordpools/wordpool_EN.txt	SEED	TOY	2	6	SEED	n/a	0	2	[0, 0, 0]	n/a	0	1	0	n/a	n/a	0.0	0	0	0	PAL2	0	R1121M
1632.213	0.25	370198	STUDY_ORIENT	n/a	n/a	NOSE	ZOO	3	5	ZOO	n/a	0	2	[0, 0, 0]	n/a	0	1	0	n/a	n/a	0.0	0	0	0	PAL2	0	R1121M
1632.897	4.6	370540	STIM_ON	n/a	n/a	NOSE	ZOO	3	5	ZOO	n/a	0	2	[0, 0, 0]	n/a	1	1	4600	RFG1	RFG2	2000.0	50	230	300	PAL2	0	R1121M
1633.113	4.0	370648	STUDY_PAIR	n/a	wordpools/wordpool_EN.txt	NOSE	ZOO	3	5	ZOO	n/a	0	2	[0, 0, 0]	n/a	1	1	4600	RFG1	RFG2	2000.0	50	230	300	PAL2	0	R1121M
1638.131	0.25	373156	STUDY_ORIENT	n/a	n/a	HOOF	TRUCK	4	2	HOOF	HAWK	0	2	[0, 0, 0]	n/a	0	1	0	n/a	n/a	0.0	0	0	0	PAL2	0	R1121M
1638.981	4.0	373581	STUDY_PAIR	n/a	wordpools/wordpool_EN.txt	HOOF	TRUCK	4	2	HOOF	HAWK	0	2	[0, 0, 0]	n/a	0	1	0	n/a	n/a	0.0	0	0	0	PAL2	0	R1121M
1644.015	0.25	376098	STUDY_ORIENT	n/a	n/a	BOOT	POND	5	1	POND	n/a	0	2	[0, 0, 0]	n/a	0	1	0	n/a	n/a	0.0	0	0	0	PAL2	0	R1121M
1644.794	4.6	376488	STIM_ON	n/a	n/a	BOOT	POND	5	1	POND	n/a	0	2	[0, 0, 0]	n/a	1	1	4600	RFG1	RFG2	2000.0	50	230	300	PAL2	0	R1121M
1644.999	4.0	376590	STUDY_PAIR	n/a	wordpools/wordpool_EN.txt	BOOT	POND	5	1	POND	n/a	0	2	[0, 0, 0]	n/a	1	1	4600	RFG1	RFG2	2000.0	50	230	300	PAL2	0	R1121M
1650.033	0.25	379107	STUDY_ORIENT	n/a	n/a	HAWK	TEETH	6	4	HAWK	n/a	0	2	[0, 0, 0]	n/a	0	1	0	n/a	n/a	0.0	0	0	0	PAL2	0	R1121M
1650.85	4.0	379515	STUDY_PAIR	n/a	wordpools/wordpool_EN.txt	HAWK	TEETH	6	4	HAWK	n/a	0	2	[0, 0, 0]	n/a	0	1	0	n/a	n/a	0.0	0	0	0	PAL2	0	R1121M
1654.868	0.999	381524	START	n/a	n/a	n/a	n/a	-999	-999	n/a	n/a	-999	3	[-999, -999, -999]	n/a	0	1	0	n/a	n/a	0.0	0	0	0	PAL2	0	R1121M
1655.867	0.017	382024	MATH_START	n/a	n/a	n/a	n/a	-999	-999	n/a	n/a	-999	2	[0, 0, 0]	n/a	0	1	0	n/a	n/a	0.0	0	0	0	PAL2	0	R1121M
1655.884	7.72	382032	PROB	7.686	n/a	n/a	n/a	-999	-999	n/a	n/a	-999	3	[8, 1, 4]	14	0	1	0	n/a	n/a	0.0	0	0	0	PAL2	0	R1121M
1663.604	7.333	385892	PROB	7.301	n/a	n/a	n/a	-999	-999	n/a	n/a	-999	3	[3, 9, 8]	16	0	1	0	n/a	n/a	0.0	0	0	0	PAL2	0	R1121M
1670.937	3.818	389558	PROB	3.784	n/a	n/a	n/a	-999	-999	n/a	n/a	-999	3	[5, 5, 6]	16	0	1	0	n/a	n/a	0.0	0	0	0	PAL2	0	R1121M
1674.755	3.91	391467	PROB	3.91	n/a	n/a	n/a	-999	-999	n/a	n/a	-999	3	[2, 8, 7]	17	0	1	0	n/a	n/a	0.0	0	0	0	PAL2	0	R1121M
1678.665	0.007	393422	STOP	n/a	n/a	n/a	n/a	-999	-999	n/a	n/a	-999	3	[-999, -999, -999]	n/a	0	1	0	n/a	n/a	0.0	0	0	0	PAL2	0	R1121M
1678.672	0.0	393425	MATH_END	n/a	n/a	n/a	n/a	-999	-999	n/a	n/a	-999	2	[0, 0, 0]	n/a	0	1	0	n/a	n/a	0.0	0	0	0	PAL2	0	R1121M
1678.672	0.017	393425	TEST_START	n/a	n/a	n/a	n/a	-999	-999	n/a	n/a	-999	2	[0, 0, 0]	n/a	0	1	0	n/a	n/a	0.0	0	0	0	PAL2	0	R1121M
1678.689	0.25	393434	TEST_ORIENT	n/a	n/a	BOOT	POND	5	1	POND	n/a	0	2	[0, 0, 0]	n/a	0	1	0	n/a	n/a	0.0	0	0	0	PAL2	0	R1121M
1679.489	4.0	393834	TEST_PROBE	n/a	wordpools/wordpool_EN.txt	BOOT	POND	5	1	POND	n/a	0	2	[0, 0, 0]	n/a	0	1	0	n/a	n/a	0.0	0	0	0	PAL2	0	R1121M
1679.49	4.077	393834	REC_START	n/a	n/a	n/a	n/a	5	-999	n/a	n/a	0	2	[0, 0, 0]	n/a	0	1	0	n/a	n/a	0.0	0	0	0	PAL2	0	R1121M
1683.567	0.948	395873	REC_EVENT	4.077	n/a	BOOT	POND	5	1	POND	<>	0	2	[0, 0, 0]	n/a	0	1	0	n/a	n/a	0.0	0	0	0	PAL2	0	R1121M
1684.515	0.008	396347	REC_END	n/a	n/a	n/a	n/a	5	-999	n/a	n/a	-999	2	[0, 0, 0]	n/a	0	1	0	n/a	n/a	0.0	0	0	0	PAL2	0	R1121M
1684.523	0.25	396351	TEST_ORIENT	n/a	n/a	HOOF	TRUCK	4	2	HOOF	HAWK	0	2	[0, 0, 0]	n/a	0	1	0	n/a	n/a	0.0	0	0	0	PAL2	0	R1121M
1685.44	4.0	396809	TEST_PROBE	n/a	wordpools/wordpool_EN.txt	HOOF	TRUCK	4	2	HOOF	HAWK	0	2	[0, 0, 0]	n/a	0	1	0	n/a	n/a	0.0	0	0	0	PAL2	0	R1121M
1685.441	3.203	396810	REC_START	n/a	n/a	n/a	n/a	4	-999	n/a	HAWK	0	2	[0, 0, 0]	n/a	0	1	0	n/a	n/a	0.0	0	0	0	PAL2	0	R1121M
1688.644	1.805	398411	REC_EVENT	3.203	n/a	HOOF	TRUCK	4	2	HOOF	HAWK	0	2	[0, 0, 0]	n/a	0	1	0	n/a	n/a	0.0	0	0	0	PAL2	0	R1121M
1690.449	0.009	399313	REC_END	n/a	n/a	n/a	n/a	4	-999	n/a	n/a	-999	2	[0, 0, 0]	n/a	0	1	0	n/a	n/a	0.0	0	0	0	PAL2	0	R1121M
1690.458	0.25	399318	TEST_ORIENT	n/a	n/a	SNAIL	GLASS	1	3	GLASS	n/a	0	2	[0, 0, 0]	n/a	0	1	0	n/a	n/a	0.0	0	0	0	PAL2	0	R1121M
1691.391	4.0	399784	TEST_PROBE	n/a	wordpools/wordpool_EN.txt	SNAIL	GLASS	1	3	GLASS	n/a	0	2	[0, 0, 0]	n/a	0	1	0	n/a	n/a	0.0	0	0	0	PAL2	0	R1121M
1691.392	4.009	399785	REC_START	n/a	n/a	n/a	n/a	1	-999	n/a	n/a	0	2	[0, 0, 0]	n/a	0	1	0	n/a	n/a	0.0	0	0	0	PAL2	0	R1121M
1695.401	1.002	401789	REC_EVENT	4.009	n/a	SNAIL	GLASS	1	3	GLASS	<>	0	2	[0, 0, 0]	n/a	0	1	0	n/a	n/a	0.0	0	0	0	PAL2	0	R1121M
1696.403	0.023	402290	REC_END	n/a	n/a	n/a	n/a	1	-999	n/a	n/a	-999	2	[0, 0, 0]	n/a	0	1	0	n/a	n/a	0.0	0	0	0	PAL2	0	R1121M
1696.426	0.25	402302	TEST_ORIENT	n/a	n/a	HAWK	TEETH	6	4	HAWK	n/a	0	2	[0, 0, 0]	n/a	0	1	0	n/a	n/a	0.0	0	0	0	PAL2	0	R1121M
1697.276	0.0	402727	REC_START	n/a	n/a	n/a	n/a	6	-999	n/a	n/a	0	2	[0, 0, 0]	n/a	0	1	0	n/a	n/a	0.0	0	0	0	PAL2	0	R1121M
1697.276	4.0	402727	TEST_PROBE	n/a	wordpools/wordpool_EN.txt	HAWK	TEETH	6	4	HAWK	n/a	0	2	[0, 0, 0]	n/a	0	1	0	n/a	n/a	0.0	0	0	0	PAL2	0	R1121M
1701.297	0.996	404737	REC_EVENT	4.021	n/a	HAWK	TEETH	6	4	HAWK	<>	0	2	[0, 0, 0]	n/a	0	1	0	n/a	n/a	0.0	0	0	0	PAL2	0	R1121M
1702.293	0.017	405235	REC_END	n/a	n/a	n/a	n/a	6	-999	n/a	n/a	-999	2	[0, 0, 0]	n/a	0	1	0	n/a	n/a	0.0	0	0	0	PAL2	0	R1121M
1702.31	0.25	405243	TEST_ORIENT	n/a	n/a	NOSE	ZOO	3	5	ZOO	n/a	0	2	[0, 0, 0]	n/a	0	1	0	n/a	n/a	0.0	0	0	0	PAL2	0	R1121M
1703.177	4.0	405677	TEST_PROBE	n/a	wordpools/wordpool_EN.txt	NOSE	ZOO	3	5	ZOO	n/a	0	2	[0, 0, 0]	n/a	0	1	0	n/a	n/a	0.0	0	0	0	PAL2	0	R1121M
1703.178	4.027	405677	REC_START	n/a	n/a	n/a	n/a	3	-999	n/a	n/a	0	2	[0, 0, 0]	n/a	0	1	0	n/a	n/a	0.0	0	0	0	PAL2	0	R1121M
1707.205	0.998	407691	REC_EVENT	4.027	n/a	NOSE	ZOO	3	5	ZOO	<>	0	2	[0, 0, 0]	n/a	0	1	0	n/a	n/a	0.0	0	0	0	PAL2	0	R1121M
1708.203	0.008	408190	REC_END	n/a	n/a	n/a	n/a	3	-999	n/a	n/a	-999	2	[0, 0, 0]	n/a	0	1	0	n/a	n/a	0.0	0	0	0	PAL2	0	R1121M
1708.211	0.25	408194	TEST_ORIENT	n/a	n/a	SEED	TOY	2	6	SEED	n/a	0	2	[0, 0, 0]	n/a	0	1	0	n/a	n/a	0.0	0	0	0	PAL2	0	R1121M
1709.178	4.0	408677	TEST_PROBE	n/a	wordpools/wordpool_EN.txt	SEED	TOY	2	6	SEED	n/a	0	2	[0, 0, 0]	n/a	0	1	0	n/a	n/a	0.0	0	0	0	PAL2	0	R1121M
1709.179	1.831	408678	REC_START	n/a	n/a	n/a	n/a	2	-999	n/a	n/a	0	2	[0, 0, 0]	n/a	0	1	0	n/a	n/a	0.0	0	0	0	PAL2	0	R1121M
1711.01	3.177	409593	REC_EVENT	1.831	n/a	SEED	TOY	2	6	SEED	<>	0	2	[0, 0, 0]	n/a	0	1	0	n/a	n/a	0.0	0	0	0	PAL2	0	R1121M
1714.187	5.006	411181	REC_END	n/a	n/a	n/a	n/a	2	-999	n/a	n/a	-999	2	[0, 0, 0]	n/a	0	1	0	n/a	n/a	0.0	0	0	0	PAL2	0	R1121M
1719.193	10.439	413684	ENCODING_START	n/a	n/a	n/a	n/a	0	-999	n/a	n/a	-999	3	[0, 0, 0]	n/a	0	1	0	n/a	n/a	0.0	0	0	0	PAL2	0	R1121M
1729.632	0.25	418903	STUDY_ORIENT	n/a	n/a	TRAY	HOSE	1	5	HOSE	n/a	0	3	[0, 0, 0]	n/a	0	1	0	n/a	n/a	0.0	0	0	0	PAL2	0	R1121M
1730.649	4.0	419412	STUDY_PAIR	n/a	wordpools/wordpool_EN.txt	TRAY	HOSE	1	5	HOSE	n/a	0	3	[0, 0, 0]	n/a	0	1	0	n/a	n/a	0.0	0	0	0	PAL2	0	R1121M
1735.667	0.25	421921	STUDY_ORIENT	n/a	n/a	STRING	FAN	2	4	STRING	n/a	0	3	[0, 0, 0]	n/a	0	1	0	n/a	n/a	0.0	0	0	0	PAL2	0	R1121M
1736.365	4.6	422270	STIM_ON	n/a	n/a	STRING	FAN	2	4	STRING	n/a	0	3	[0, 0, 0]	n/a	1	1	4600	RFG1	RFG2	2000.0	50	230	300	PAL2	0	R1121M
1736.568	4.0	422371	STUDY_PAIR	n/a	wordpools/wordpool_EN.txt	STRING	FAN	2	4	STRING	n/a	0	3	[0, 0, 0]	n/a	1	1	4600	RFG1	RFG2	2000.0	50	230	300	PAL2	0	R1121M
1741.586	0.25	424880	STUDY_ORIENT	n/a	n/a	SLUSH	BOWL	3	3	SLUSH	BOWL	1	3	[0, 0, 0]	n/a	0	1	0	n/a	n/a	0.0	0	0	0	PAL2	0	R1121M
1742.468	4.0	425321	STUDY_PAIR	n/a	wordpools/wordpool_EN.txt	SLUSH	BOWL	3	3	SLUSH	BOWL	1	3	[0, 0, 0]	n/a	0	1	0	n/a	n/a	0.0	0	0	0	PAL2	0	R1121M
1747.486	0.25	427830	STUDY_ORIENT	n/a	n/a	FLAG	PEA	4	6	PEA	TRASH	0	3	[0, 0, 0]	n/a	0	1	0	n/a	n/a	0.0	0	0	0	PAL2	0	R1121M
1748.154	4.6	428164	STIM_ON	n/a	n/a	FLAG	PEA	4	6	PEA	TRASH	0	3	[0, 0, 0]	n/a	1	1	4600	RFG1	RFG2	2000.0	50	230	300	PAL2	0	R1121M
1748.369	4.0	428271	STUDY_PAIR	n/a	wordpools/wordpool_EN.txt	FLAG	PEA	4	6	PEA	TRASH	0	3	[0, 0, 0]	n/a	1	1	4600	RFG1	RFG2	2000.0	50	230	300	PAL2	0	R1121M
1753.387	0.25	430780	STUDY_ORIENT	n/a	n/a	WOOD	TOAD	5	1	TOAD	n/a	0	3	[0, 0, 0]	n/a	0	1	0	n/a	n/a	0.0	0	0	0	PAL2	0	R1121M
1754.271	4.0	431222	STUDY_PAIR	n/a	wordpools/wordpool_EN.txt	WOOD	TOAD	5	1	TOAD	n/a	0	3	[0, 0, 0]	n/a	0	1	0	n/a	n/a	0.0	0	0	0	PAL2	0	R1121M
1759.305	0.25	433739	STUDY_ORIENT	n/a	n/a	CUP	FOOT	6	2	CUP	n/a	0	3	[0, 0, 0]	n/a	0	1	0	n/a	n/a	0.0	0	0	0	PAL2	0	R1121M
1760.07	4.6	434121	STIM_ON	n/a	n/a	CUP	FOOT	6	2	CUP	n/a	0	3	[0, 0, 0]	n/a	1	1	4600	RFG1	RFG2	2000.0	50	230	300	PAL2	0	R1121M
1760.271	4.0	434222	STUDY_PAIR	n/a	wordpools/wordpool_EN.txt	CUP	FOOT	6	2	CUP	n/a	0	3	[0, 0, 0]	n/a	1	1	4600	RFG1	RFG2	2000.0	50	230	300	PAL2	0	R1121M
1764.273	0.999	436222	START	n/a	n/a	n/a	n/a	-999	-999	n/a	n/a	-999	4	[-999, -999, -999]	n/a	0	1	0	n/a	n/a	0.0	0	0	0	PAL2	0	R1121M
1765.272	0.017	436722	MATH_START	n/a	n/a	n/a	n/a	-999	-999	n/a	n/a	-999	3	[0, 0, 0]	n/a	0	1	0	n/a	n/a	0.0	0	0	0	PAL2	0	R1121M
1765.289	6.135	436730	PROB	6.104	n/a	n/a	n/a	-999	-999	n/a	n/a	-999	4	[3, 7, 5]	15	0	1	0	n/a	n/a	0.0	0	0	0	PAL2	0	R1121M
1771.424	12.553	439798	PROB	12.529	n/a	n/a	n/a	-999	-999	n/a	n/a	-999	4	[5, 8, 9]	17	0	1	0	n/a	n/a	0.0	0	0	0	PAL2	0	R1121M
1783.977	8.248	446074	PROB	8.248	n/a	n/a	n/a	-999	-999	n/a	n/a	-999	4	[8, 6, 8]	18	0	1	0	n/a	n/a	0.0	0	0	0	PAL2	0	R1121M
1792.225	0.003	450197	STOP	n/a	n/a	n/a	n/a	-999	-999	n/a	n/a	-999	4	[-999, -999, -999]	n/a	0	1	0	n/a	n/a	0.0	0	0	0	PAL2	0	R1121M
1792.228	0.0	450199	MATH_END	n/a	n/a	n/a	n/a	-999	-999	n/a	n/a	-999	3	[0, 0, 0]	n/a	0	1	0	n/a	n/a	0.0	0	0	0	PAL2	0	R1121M
1792.228	0.016	450199	TEST_START	n/a	n/a	n/a	n/a	-999	-999	n/a	n/a	-999	3	[0, 0, 0]	n/a	0	1	0	n/a	n/a	0.0	0	0	0	PAL2	0	R1121M
1792.244	0.25	450207	TEST_ORIENT	n/a	n/a	WOOD	TOAD	5	1	TOAD	n/a	0	3	[0, 0, 0]	n/a	0	1	0	n/a	n/a	0.0	0	0	0	PAL2	0	R1121M
1793.095	0.0	450632	REC_START	n/a	n/a	n/a	n/a	5	-999	n/a	n/a	0	3	[0, 0, 0]	n/a	0	1	0	n/a	n/a	0.0	0	0	0	PAL2	0	R1121M
1793.095	4.0	450632	TEST_PROBE	n/a	wordpools/wordpool_EN.txt	WOOD	TOAD	5	1	TOAD	n/a	0	3	[0, 0, 0]	n/a	0	1	0	n/a	n/a	0.0	0	0	0	PAL2	0	R1121M
1797.11	1.002	452640	REC_EVENT	4.015	n/a	WOOD	TOAD	5	1	TOAD	<>	0	3	[0, 0, 0]	n/a	0	1	0	n/a	n/a	0.0	0	0	0	PAL2	0	R1121M
1798.112	0.017	453141	REC_END	n/a	n/a	n/a	n/a	5	-999	n/a	n/a	-999	3	[0, 0, 0]	n/a	0	1	0	n/a	n/a	0.0	0	0	0	PAL2	0	R1121M
1798.129	0.25	453149	TEST_ORIENT	n/a	n/a	CUP	FOOT	6	2	CUP	n/a	0	3	[0, 0, 0]	n/a	0	1	0	n/a	n/a	0.0	0	0	0	PAL2	0	R1121M
1798.963	4.0	453566	TEST_PROBE	n/a	wordpools/wordpool_EN.txt	CUP	FOOT	6	2	CUP	n/a	0	3	[0, 0, 0]	n/a	0	1	0	n/a	n/a	0.0	0	0	0	PAL2	0	R1121M
1798.964	4.515	453567	REC_START	n/a	n/a	n/a	n/a	6	-999	n/a	n/a	0	3	[0, 0, 0]	n/a	0	1	0	n/a	n/a	0.0	0	0	0	PAL2	0	R1121M
1803.479	0.501	455824	REC_EVENT	4.515	n/a	CUP	FOOT	6	2	CUP	<>	0	3	[0, 0, 0]	n/a	0	1	0	n/a	n/a	0.0	0	0	0	PAL2	0	R1121M
1803.98	0.017	456074	REC_END	n/a	n/a	n/a	n/a	6	-999	n/a	n/a	-999	3	[0, 0, 0]	n/a	0	1	0	n/a	n/a	0.0	0	0	0	PAL2	0	R1121M
1803.997	0.25	456083	TEST_ORIENT	n/a	n/a	SLUSH	BOWL	3	3	SLUSH	BOWL	1	3	[0, 0, 0]	n/a	0	1	0	n/a	n/a	0.0	0	0	0	PAL2	0	R1121M
1804.931	0.0	456550	REC_START	n/a	n/a	n/a	n/a	3	-999	n/a	BOWL	1	3	[0, 0, 0]	n/a	0	1	0	n/a	n/a	0.0	0	0	0	PAL2	0	R1121M
1804.931	4.0	456550	TEST_PROBE	n/a	wordpools/wordpool_EN.txt	SLUSH	BOWL	3	3	SLUSH	BOWL	1	3	[0, 0, 0]	n/a	0	1	0	n/a	n/a	0.0	0	0	0	PAL2	0	R1121M
1807.9	2.048	458034	REC_EVENT	2.969	n/a	SLUSH	BOWL	3	3	SLUSH	BOWL	1	3	[0, 0, 0]	n/a	0	1	0	n/a	n/a	0.0	0	0	0	PAL2	0	R1121M
1809.948	0.017	459058	REC_END	n/a	n/a	n/a	n/a	3	-999	n/a	n/a	-999	3	[0, 0, 0]	n/a	0	1	0	n/a	n/a	0.0	0	0	0	PAL2	0	R1121M
1809.965	0.25	459067	TEST_ORIENT	n/a	n/a	STRING	FAN	2	4	STRING	n/a	0	3	[0, 0, 0]	n/a	0	1	0	n/a	n/a	0.0	0	0	0	PAL2	0	R1121M
1810.832	4.0	459500	TEST_PROBE	n/a	wordpools/wordpool_EN.txt	STRING	FAN	2	4	STRING	n/a	0	3	[0, 0, 0]	n/a	0	1	0	n/a	n/a	0.0	0	0	0	PAL2	0	R1121M
1810.832	4.015	459500	REC_START	n/a	n/a	n/a	n/a	2	-999	n/a	n/a	0	3	[0, 0, 0]	n/a	0	1	0	n/a	n/a	0.0	0	0	0	PAL2	0	R1121M
1814.847	1.002	461507	REC_EVENT	4.015	n/a	STRING	FAN	2	4	STRING	<>	0	3	[0, 0, 0]	n/a	0	1	0	n/a	n/a	0.0	0	0	0	PAL2	0	R1121M
1815.849	0.017	462008	REC_END	n/a	n/a	n/a	n/a	2	-999	n/a	n/a	-999	3	[0, 0, 0]	n/a	0	1	0	n/a	n/a	0.0	0	0	0	PAL2	0	R1121M
1815.866	0.25	462017	TEST_ORIENT	n/a	n/a	TRAY	HOSE	1	5	HOSE	n/a	0	3	[0, 0, 0]	n/a	0	1	0	n/a	n/a	0.0	0	0	0	PAL2	0	R1121M
1816.75	4.0	462459	TEST_PROBE	n/a	wordpools/wordpool_EN.txt	TRAY	HOSE	1	5	HOSE	n/a	0	3	[0, 0, 0]	n/a	0	1	0	n/a	n/a	0.0	0	0	0	PAL2	0	R1121M
1816.75	4.521	462459	REC_START	n/a	n/a	n/a	n/a	1	-999	n/a	n/a	0	3	[0, 0, 0]	n/a	0	1	0	n/a	n/a	0.0	0	0	0	PAL2	0	R1121M
1821.271	0.504	464719	REC_EVENT	4.521	n/a	TRAY	HOSE	1	5	HOSE	<>	0	3	[0, 0, 0]	n/a	0	1	0	n/a	n/a	0.0	0	0	0	PAL2	0	R1121M
1821.775	0.009	464971	REC_END	n/a	n/a	n/a	n/a	1	-999	n/a	n/a	-999	3	[0, 0, 0]	n/a	0	1	0	n/a	n/a	0.0	0	0	0	PAL2	0	R1121M
1821.784	0.25	464976	TEST_ORIENT	n/a	n/a	FLAG	PEA	4	6	PEA	TRASH	0	3	[0, 0, 0]	n/a	0	1	0	n/a	n/a	0.0	0	0	0	PAL2	0	R1121M
1822.818	4.0	465493	TEST_PROBE	n/a	wordpools/wordpool_EN.txt	FLAG	PEA	4	6	PEA	TRASH	0	3	[0, 0, 0]	n/a	0	1	0	n/a	n/a	0.0	0	0	0	PAL2	0	R1121M
1822.818	3.309	465493	REC_START	n/a	n/a	n/a	n/a	4	-999	n/a	TRASH	0	3	[0, 0, 0]	n/a	0	1	0	n/a	n/a	0.0	0	0	0	PAL2	0	R1121M
1826.127	1.708	467147	REC_EVENT	3.309	n/a	FLAG	PEA	4	6	PEA	TRASH	0	3	[0, 0, 0]	n/a	0	1	0	n/a	n/a	0.0	0	0	0	PAL2	0	R1121M
1827.835	3.534	468001	REC_END	n/a	n/a	n/a	n/a	4	-999	n/a	n/a	-999	3	[0, 0, 0]	n/a	0	1	0	n/a	n/a	0.0	0	0	0	PAL2	0	R1121M
1831.369	10.452	469768	ENCODING_START	n/a	n/a	n/a	n/a	0	-999	n/a	n/a	-999	4	[0, 0, 0]	n/a	0	1	0	n/a	n/a	0.0	0	0	0	PAL2	0	R1121M
1841.821	0.25	474993	STUDY_ORIENT	n/a	n/a	LAND	PANTS	1	1	LAND	n/a	0	4	[0, 0, 0]	n/a	0	1	0	n/a	n/a	0.0	0	0	0	PAL2	0	R1121M
1842.638	4.0	475402	STUDY_PAIR	n/a	wordpools/wordpool_EN.txt	LAND	PANTS	1	1	LAND	n/a	0	4	[0, 0, 0]	n/a	0	1	0	n/a	n/a	0.0	0	0	0	PAL2	0	R1121M
1847.656	0.25	477911	STUDY_ORIENT	n/a	n/a	HAND	ROAD	2	2	ROAD	n/a	0	4	[0, 0, 0]	n/a	0	1	0	n/a	n/a	0.0	0	0	0	PAL2	0	R1121M
1848.473	4.0	478319	STUDY_PAIR	n/a	wordpools/wordpool_EN.txt	HAND	ROAD	2	2	ROAD	n/a	0	4	[0, 0, 0]	n/a	0	1	0	n/a	n/a	0.0	0	0	0	PAL2	0	R1121M
1853.507	0.25	480836	STUDY_ORIENT	n/a	n/a	ROOM	SEAT	3	5	SEAT	n/a	0	4	[0, 0, 0]	n/a	0	1	0	n/a	n/a	0.0	0	0	0	PAL2	0	R1121M
1854.507	4.0	481336	STUDY_PAIR	n/a	wordpools/wordpool_EN.txt	ROOM	SEAT	3	5	SEAT	n/a	0	4	[0, 0, 0]	n/a	0	1	0	n/a	n/a	0.0	0	0	0	PAL2	0	R1121M
1859.526	0.25	483845	STUDY_ORIENT	n/a	n/a	GATE	VINE	4	4	VINE	n/a	0	4	[0, 0, 0]	n/a	0	1	0	n/a	n/a	0.0	0	0	0	PAL2	0	R1121M
1860.392	4.0	484278	STUDY_PAIR	n/a	wordpools/wordpool_EN.txt	GATE	VINE	4	4	VINE	n/a	0	4	[0, 0, 0]	n/a	0	1	0	n/a	n/a	0.0	0	0	0	PAL2	0	R1121M
1865.426	0.25	486795	STUDY_ORIENT	n/a	n/a	DOOR	HOLE	5	3	DOOR	n/a	0	4	[0, 0, 0]	n/a	0	1	0	n/a	n/a	0.0	0	0	0	PAL2	0	R1121M
1866.443	4.0	487303	STUDY_PAIR	n/a	wordpools/wordpool_EN.txt	DOOR	HOLE	5	3	DOOR	n/a	0	4	[0, 0, 0]	n/a	0	1	0	n/a	n/a	0.0	0	0	0	PAL2	0	R1121M
1871.477	0.25	489820	STUDY_ORIENT	n/a	n/a	STAIR	ROOF	6	6	STAIR	HOOF	0	4	[0, 0, 0]	n/a	0	1	0	n/a	n/a	0.0	0	0	0	PAL2	0	R1121M
1872.477	4.0	490320	STUDY_PAIR	n/a	wordpools/wordpool_EN.txt	STAIR	ROOF	6	6	STAIR	HOOF	0	4	[0, 0, 0]	n/a	0	1	0	n/a	n/a	0.0	0	0	0	PAL2	0	R1121M
1876.478	1.0	492320	START	n/a	n/a	n/a	n/a	-999	-999	n/a	n/a	-999	5	[-999, -999, -999]	n/a	0	1	0	n/a	n/a	0.0	0	0	0	PAL2	0	R1121M
1877.478	0.017	492820	MATH_START	n/a	n/a	n/a	n/a	-999	-999	n/a	n/a	-999	4	[0, 0, 0]	n/a	0	1	0	n/a	n/a	0.0	0	0	0	PAL2	0	R1121M
1877.495	6.518	492829	PROB	6.498	n/a	n/a	n/a	-999	-999	n/a	n/a	-999	5	[4, 3, 5]	15	0	1	0	n/a	n/a	0.0	0	0	0	PAL2	0	R1121M
1884.013	11.269	496088	PROB	11.236	n/a	n/a	n/a	-999	-999	n/a	n/a	-999	5	[3, 5, 5]	13	0	1	0	n/a	n/a	0.0	0	0	0	PAL2	0	R1121M
1895.282	9.815	501722	PROB	9.815	n/a	n/a	n/a	-999	-999	n/a	n/a	-999	5	[4, 9, 4]	7	0	1	0	n/a	n/a	0.0	0	0	0	PAL2	0	R1121M
1905.097	0.003	506629	STOP	n/a	n/a	n/a	n/a	-999	-999	n/a	n/a	-999	5	[-999, -999, -999]	n/a	0	1	0	n/a	n/a	0.0	0	0	0	PAL2	0	R1121M
1905.1	0.0	506630	MATH_END	n/a	n/a	n/a	n/a	-999	-999	n/a	n/a	-999	4	[0, 0, 0]	n/a	0	1	0	n/a	n/a	0.0	0	0	0	PAL2	0	R1121M
1905.1	0.017	506630	TEST_START	n/a	n/a	n/a	n/a	-999	-999	n/a	n/a	-999	4	[0, 0, 0]	n/a	0	1	0	n/a	n/a	0.0	0	0	0	PAL2	0	R1121M
1905.117	0.25	506639	TEST_ORIENT	n/a	n/a	LAND	PANTS	1	1	LAND	n/a	0	4	[0, 0, 0]	n/a	0	1	0	n/a	n/a	0.0	0	0	0	PAL2	0	R1121M
1905.861	4.6	507011	STIM_ON	n/a	n/a	LAND	PANTS	1	1	LAND	n/a	0	4	[0, 0, 0]	n/a	1	1	4600	RFG1	RFG2	2000.0	50	230	300	PAL2	0	R1121M
1906.067	4.0	507114	TEST_PROBE	n/a	wordpools/wordpool_EN.txt	LAND	PANTS	1	1	LAND	n/a	0	4	[0, 0, 0]	n/a	1	1	4600	RFG1	RFG2	2000.0	50	230	300	PAL2	0	R1121M
1906.068	4.509	507114	REC_START	n/a	n/a	n/a	n/a	1	-999	n/a	n/a	0	4	[0, 0, 0]	n/a	1	1	4600	RFG1	RFG2	2000.0	50	230	300	PAL2	0	R1121M
1910.577	0.499	509369	REC_EVENT	4.509	n/a	LAND	PANTS	1	1	LAND	<>	0	4	[0, 0, 0]	n/a	0	1	0	n/a	n/a	0.0	0	0	0	PAL2	0	R1121M
1911.076	0.009	509618	REC_END	n/a	n/a	n/a	n/a	1	-999	n/a	n/a	-999	4	[0, 0, 0]	n/a	0	1	0	n/a	n/a	0.0	0	0	0	PAL2	0	R1121M
1911.085	0.25	509623	TEST_ORIENT	n/a	n/a	HAND	ROAD	2	2	ROAD	n/a	0	4	[0, 0, 0]	n/a	0	1	0	n/a	n/a	0.0	0	0	0	PAL2	0	R1121M
1911.902	4.0	510031	TEST_PROBE	n/a	wordpools/wordpool_EN.txt	HAND	ROAD	2	2	ROAD	n/a	0	4	[0, 0, 0]	n/a	0	1	0	n/a	n/a	0.0	0	0	0	PAL2	0	R1121M
1911.902	4.515	510031	REC_START	n/a	n/a	n/a	n/a	2	-999	n/a	n/a	0	4	[0, 0, 0]	n/a	0	1	0	n/a	n/a	0.0	0	0	0	PAL2	0	R1121M
1916.417	0.502	512288	REC_EVENT	4.515	n/a	HAND	ROAD	2	2	ROAD	<>	0	4	[0, 0, 0]	n/a	0	1	0	n/a	n/a	0.0	0	0	0	PAL2	0	R1121M
1916.919	0.017	512539	REC_END	n/a	n/a	n/a	n/a	2	-999	n/a	n/a	-999	4	[0, 0, 0]	n/a	0	1	0	n/a	n/a	0.0	0	0	0	PAL2	0	R1121M
1916.936	0.25	512548	TEST_ORIENT	n/a	n/a	DOOR	HOLE	5	3	DOOR	n/a	0	4	[0, 0, 0]	n/a	0	1	0	n/a	n/a	0.0	0	0	0	PAL2	0	R1121M
1917.711	4.6	512935	STIM_ON	n/a	n/a	DOOR	HOLE	5	3	DOOR	n/a	0	4	[0, 0, 0]	n/a	1	1	4600	RFG1	RFG2	2000.0	50	230	300	PAL2	0	R1121M
1917.92	4.0	513040	TEST_PROBE	n/a	wordpools/wordpool_EN.txt	DOOR	HOLE	5	3	DOOR	n/a	0	4	[0, 0, 0]	n/a	1	1	4600	RFG1	RFG2	2000.0	50	230	300	PAL2	0	R1121M
1917.92	4.521	513040	REC_START	n/a	n/a	n/a	n/a	5	-999	n/a	n/a	0	4	[0, 0, 0]	n/a	1	1	4600	RFG1	RFG2	2000.0	50	230	300	PAL2	0	R1121M
1922.441	0.505	515300	REC_EVENT	4.521	n/a	DOOR	HOLE	5	3	DOOR	<>	0	4	[0, 0, 0]	n/a	0	1	0	n/a	n/a	0.0	0	0	0	PAL2	0	R1121M
1922.946	0.008	515553	REC_END	n/a	n/a	n/a	n/a	5	-999	n/a	n/a	-999	4	[0, 0, 0]	n/a	0	1	0	n/a	n/a	0.0	0	0	0	PAL2	0	R1121M
1922.954	0.25	515557	TEST_ORIENT	n/a	n/a	GATE	VINE	4	4	VINE	n/a	0	4	[0, 0, 0]	n/a	0	1	0	n/a	n/a	0.0	0	0	0	PAL2	0	R1121M
1923.988	4.0	516074	TEST_PROBE	n/a	wordpools/wordpool_EN.txt	GATE	VINE	4	4	VINE	n/a	0	4	[0, 0, 0]	n/a	0	1	0	n/a	n/a	0.0	0	0	0	PAL2	0	R1121M
1923.988	4.515	516074	REC_START	n/a	n/a	n/a	n/a	4	-999	n/a	n/a	0	4	[0, 0, 0]	n/a	0	1	0	n/a	n/a	0.0	0	0	0	PAL2	0	R1121M
1928.503	0.502	518331	REC_EVENT	4.515	n/a	GATE	VINE	4	4	VINE	<>	0	4	[0, 0, 0]	n/a	0	1	0	n/a	n/a	0.0	0	0	0	PAL2	0	R1121M
1929.005	0.017	518582	REC_END	n/a	n/a	n/a	n/a	4	-999	n/a	n/a	-999	4	[0, 0, 0]	n/a	0	1	0	n/a	n/a	0.0	0	0	0	PAL2	0	R1121M
1929.022	0.25	518590	TEST_ORIENT	n/a	n/a	ROOM	SEAT	3	5	SEAT	n/a	0	4	[0, 0, 0]	n/a	0	1	0	n/a	n/a	0.0	0	0	0	PAL2	0	R1121M
1929.679	4.6	518919	STIM_ON	n/a	n/a	ROOM	SEAT	3	5	SEAT	n/a	0	4	[0, 0, 0]	n/a	1	1	4600	RFG1	RFG2	2000.0	50	230	300	PAL2	0	R1121M
1929.889	4.0	519024	TEST_PROBE	n/a	wordpools/wordpool_EN.txt	ROOM	SEAT	3	5	SEAT	n/a	0	4	[0, 0, 0]	n/a	1	1	4600	RFG1	RFG2	2000.0	50	230	300	PAL2	0	R1121M
1929.889	4.521	519024	REC_START	n/a	n/a	n/a	n/a	3	-999	n/a	n/a	0	4	[0, 0, 0]	n/a	1	1	4600	RFG1	RFG2	2000.0	50	230	300	PAL2	0	R1121M
1934.41	0.504	521284	REC_EVENT	4.521	n/a	ROOM	SEAT	3	5	SEAT	<>	0	4	[0, 0, 0]	n/a	0	1	0	n/a	n/a	0.0	0	0	0	PAL2	0	R1121M
1934.914	0.009	521536	REC_END	n/a	n/a	n/a	n/a	3	-999	n/a	n/a	-999	4	[0, 0, 0]	n/a	0	1	0	n/a	n/a	0.0	0	0	0	PAL2	0	R1121M
1934.923	0.25	521541	TEST_ORIENT	n/a	n/a	STAIR	ROOF	6	6	STAIR	HOOF	0	4	[0, 0, 0]	n/a	0	1	0	n/a	n/a	0.0	0	0	0	PAL2	0	R1121M
1935.94	4.0	522049	TEST_PROBE	n/a	wordpools/wordpool_EN.txt	STAIR	ROOF	6	6	STAIR	HOOF	0	4	[0, 0, 0]	n/a	0	1	0	n/a	n/a	0.0	0	0	0	PAL2	0	R1121M
1935.94	3.405	522049	REC_START	n/a	n/a	n/a	n/a	6	-999	n/a	HOOF	0	4	[0, 0, 0]	n/a	0	1	0	n/a	n/a	0.0	0	0	0	PAL2	0	R1121M
1939.345	1.612	523751	REC_EVENT	3.405	n/a	STAIR	ROOF	6	6	STAIR	HOOF	0	4	[0, 0, 0]	n/a	0	1	0	n/a	n/a	0.0	0	0	0	PAL2	0	R1121M
1940.957	17.468	524557	REC_END	n/a	n/a	n/a	n/a	6	-999	n/a	n/a	-999	4	[0, 0, 0]	n/a	0	1	0	n/a	n/a	0.0	0	0	0	PAL2	0	R1121M
1958.425	10.438	533291	ENCODING_START	n/a	n/a	n/a	n/a	0	-999	n/a	n/a	-999	5	[0, 0, 0]	n/a	0	1	0	n/a	n/a	0.0	0	0	0	PAL2	0	R1121M
1968.863	0.25	538509	STUDY_ORIENT	n/a	n/a	YARD	PIN	1	5	PIN	n/a	0	5	[0, 0, 0]	n/a	0	1	0	n/a	n/a	0.0	0	0	0	PAL2	0	R1121M
1969.663	4.0	538909	STUDY_PAIR	n/a	wordpools/wordpool_EN.txt	YARD	PIN	1	5	PIN	n/a	0	5	[0, 0, 0]	n/a	0	1	0	n/a	n/a	0.0	0	0	0	PAL2	0	R1121M
1974.681	0.25	541418	STUDY_ORIENT	n/a	n/a	FORT	STREET	2	2	STREET	n/a	0	5	[0, 0, 0]	n/a	0	1	0	n/a	n/a	0.0	0	0	0	PAL2	0	R1121M
1975.481	4.0	541818	STUDY_PAIR	n/a	wordpools/wordpool_EN.txt	FORT	STREET	2	2	STREET	n/a	0	5	[0, 0, 0]	n/a	0	1	0	n/a	n/a	0.0	0	0	0	PAL2	0	R1121M
1980.499	0.25	544327	STUDY_ORIENT	n/a	n/a	SHRIMP	FENCE	3	1	SHRIMP	n/a	0	5	[0, 0, 0]	n/a	0	1	0	n/a	n/a	0.0	0	0	0	PAL2	0	R1121M
1981.349	4.0	544752	STUDY_PAIR	n/a	wordpools/wordpool_EN.txt	SHRIMP	FENCE	3	1	SHRIMP	n/a	0	5	[0, 0, 0]	n/a	0	1	0	n/a	n/a	0.0	0	0	0	PAL2	0	R1121M
1986.383	0.25	547269	STUDY_ORIENT	n/a	n/a	STONE	PET	4	6	PET	n/a	0	5	[0, 0, 0]	n/a	0	1	0	n/a	n/a	0.0	0	0	0	PAL2	0	R1121M
1987.3	4.0	547727	STUDY_PAIR	n/a	wordpools/wordpool_EN.txt	STONE	PET	4	6	PET	n/a	0	5	[0, 0, 0]	n/a	0	1	0	n/a	n/a	0.0	0	0	0	PAL2	0	R1121M
1992.318	0.25	550236	STUDY_ORIENT	n/a	n/a	DEER	BOARD	5	3	BOARD	n/a	0	5	[0, 0, 0]	n/a	0	1	0	n/a	n/a	0.0	0	0	0	PAL2	0	R1121M
1993.235	4.0	550694	STUDY_PAIR	n/a	wordpools/wordpool_EN.txt	DEER	BOARD	5	3	BOARD	n/a	0	5	[0, 0, 0]	n/a	0	1	0	n/a	n/a	0.0	0	0	0	PAL2	0	R1121M
1998.269	0.25	553211	STUDY_ORIENT	n/a	n/a	FLOOR	CHIEF	6	4	FLOOR	n/a	0	5	[0, 0, 0]	n/a	0	1	0	n/a	n/a	0.0	0	0	0	PAL2	0	R1121M
1999.236	4.0	553695	STUDY_PAIR	n/a	wordpools/wordpool_EN.txt	FLOOR	CHIEF	6	4	FLOOR	n/a	0	5	[0, 0, 0]	n/a	0	1	0	n/a	n/a	0.0	0	0	0	PAL2	0	R1121M
2003.254	0.999	555703	START	n/a	n/a	n/a	n/a	-999	-999	n/a	n/a	-999	6	[-999, -999, -999]	n/a	0	1	0	n/a	n/a	0.0	0	0	0	PAL2	0	R1121M
2004.253	0.017	556203	MATH_START	n/a	n/a	n/a	n/a	-999	-999	n/a	n/a	-999	5	[0, 0, 0]	n/a	0	1	0	n/a	n/a	0.0	0	0	0	PAL2	0	R1121M
2004.27	6.968	556211	PROB	6.939	n/a	n/a	n/a	-999	-999	n/a	n/a	-999	6	[1, 7, 4]	12	0	1	0	n/a	n/a	0.0	0	0	0	PAL2	0	R1121M
2011.238	5.135	559695	PROB	5.107	n/a	n/a	n/a	-999	-999	n/a	n/a	-999	6	[6, 6, 8]	18	0	1	0	n/a	n/a	0.0	0	0	0	PAL2	0	R1121M
2016.373	5.801	562262	PROB	5.772	n/a	n/a	n/a	-999	-999	n/a	n/a	-999	6	[9, 8, 9]	17	0	1	0	n/a	n/a	0.0	0	0	0	PAL2	0	R1121M
2022.174	13.099	565163	PROB	13.099	n/a	n/a	n/a	-999	-999	n/a	n/a	-999	6	[8, 3, 9]	20	0	1	0	n/a	n/a	0.0	0	0	0	PAL2	0	R1121M
2035.273	0.003	571712	STOP	n/a	n/a	n/a	n/a	-999	-999	n/a	n/a	-999	6	[-999, -999, -999]	n/a	0	1	0	n/a	n/a	0.0	0	0	0	PAL2	0	R1121M
2035.276	0.0	571713	MATH_END	n/a	n/a	n/a	n/a	-999	-999	n/a	n/a	-999	5	[0, 0, 0]	n/a	0	1	0	n/a	n/a	0.0	0	0	0	PAL2	0	R1121M
2035.276	0.017	571713	TEST_START	n/a	n/a	n/a	n/a	-999	-999	n/a	n/a	-999	5	[0, 0, 0]	n/a	0	1	0	n/a	n/a	0.0	0	0	0	PAL2	0	R1121M
2035.293	0.25	571722	TEST_ORIENT	n/a	n/a	SHRIMP	FENCE	3	1	SHRIMP	n/a	0	5	[0, 0, 0]	n/a	0	1	0	n/a	n/a	0.0	0	0	0	PAL2	0	R1121M
2036.11	4.0	572130	TEST_PROBE	n/a	wordpools/wordpool_EN.txt	SHRIMP	FENCE	3	1	SHRIMP	n/a	0	5	[0, 0, 0]	n/a	0	1	0	n/a	n/a	0.0	0	0	0	PAL2	0	R1121M
2036.11	4.515	572130	REC_START	n/a	n/a	n/a	n/a	3	-999	n/a	n/a	0	5	[0, 0, 0]	n/a	0	1	0	n/a	n/a	0.0	0	0	0	PAL2	0	R1121M
2040.625	0.502	574387	REC_EVENT	4.515	n/a	SHRIMP	FENCE	3	1	SHRIMP	<>	0	5	[0, 0, 0]	n/a	0	1	0	n/a	n/a	0.0	0	0	0	PAL2	0	R1121M
2041.127	0.017	574638	REC_END	n/a	n/a	n/a	n/a	3	-999	n/a	n/a	-999	5	[0, 0, 0]	n/a	0	1	0	n/a	n/a	0.0	0	0	0	PAL2	0	R1121M
2041.144	0.25	574647	TEST_ORIENT	n/a	n/a	FORT	STREET	2	2	STREET	n/a	0	5	[0, 0, 0]	n/a	0	1	0	n/a	n/a	0.0	0	0	0	PAL2	0	R1121M
2041.83	4.6	574990	STIM_ON	n/a	n/a	FORT	STREET	2	2	STREET	n/a	0	5	[0, 0, 0]	n/a	1	1	4600	RFG1	RFG2	2000.0	50	230	300	PAL2	0	R1121M
2042.045	4.0	575097	TEST_PROBE	n/a	wordpools/wordpool_EN.txt	FORT	STREET	2	2	STREET	n/a	0	5	[0, 0, 0]	n/a	1	1	4600	RFG1	RFG2	2000.0	50	230	300	PAL2	0	R1121M
2042.045	4.515	575097	REC_START	n/a	n/a	n/a	n/a	2	-999	n/a	n/a	0	5	[0, 0, 0]	n/a	1	1	4600	RFG1	RFG2	2000.0	50	230	300	PAL2	0	R1121M
2046.56	0.502	577355	REC_EVENT	4.515	n/a	FORT	STREET	2	2	STREET	<>	0	5	[0, 0, 0]	n/a	0	1	0	n/a	n/a	0.0	0	0	0	PAL2	0	R1121M
2047.062	0.017	577606	REC_END	n/a	n/a	n/a	n/a	2	-999	n/a	n/a	-999	5	[0, 0, 0]	n/a	0	1	0	n/a	n/a	0.0	0	0	0	PAL2	0	R1121M
2047.079	0.25	577614	TEST_ORIENT	n/a	n/a	DEER	BOARD	5	3	BOARD	n/a	0	5	[0, 0, 0]	n/a	0	1	0	n/a	n/a	0.0	0	0	0	PAL2	0	R1121M
2048.012	4.0	578081	TEST_PROBE	n/a	wordpools/wordpool_EN.txt	DEER	BOARD	5	3	BOARD	n/a	0	5	[0, 0, 0]	n/a	0	1	0	n/a	n/a	0.0	0	0	0	PAL2	0	R1121M
2048.013	4.509	578081	REC_START	n/a	n/a	n/a	n/a	5	-999	n/a	n/a	0	5	[0, 0, 0]	n/a	0	1	0	n/a	n/a	0.0	0	0	0	PAL2	0	R1121M
2052.522	0.499	580335	REC_EVENT	4.509	n/a	DEER	BOARD	5	3	BOARD	<>	0	5	[0, 0, 0]	n/a	0	1	0	n/a	n/a	0.0	0	0	0	PAL2	0	R1121M
2053.021	0.009	580585	REC_END	n/a	n/a	n/a	n/a	5	-999	n/a	n/a	-999	5	[0, 0, 0]	n/a	0	1	0	n/a	n/a	0.0	0	0	0	PAL2	0	R1121M
2053.03	0.25	580589	TEST_ORIENT	n/a	n/a	FLOOR	CHIEF	6	4	FLOOR	n/a	0	5	[0, 0, 0]	n/a	0	1	0	n/a	n/a	0.0	0	0	0	PAL2	0	R1121M
2053.678	4.6	580913	STIM_ON	n/a	n/a	FLOOR	CHIEF	6	4	FLOOR	n/a	0	5	[0, 0, 0]	n/a	1	1	4600	RFG1	RFG2	2000.0	50	230	300	PAL2	0	R1121M
2053.88	4.0	581014	TEST_PROBE	n/a	wordpools/wordpool_EN.txt	FLOOR	CHIEF	6	4	FLOOR	n/a	0	5	[0, 0, 0]	n/a	1	1	4600	RFG1	RFG2	2000.0	50	230	300	PAL2	0	R1121M
2053.88	4.515	581014	REC_START	n/a	n/a	n/a	n/a	6	-999	n/a	n/a	0	5	[0, 0, 0]	n/a	1	1	4600	RFG1	RFG2	2000.0	50	230	300	PAL2	0	R1121M
2058.395	0.503	583272	REC_EVENT	4.515	n/a	FLOOR	CHIEF	6	4	FLOOR	<>	0	5	[0, 0, 0]	n/a	0	1	0	n/a	n/a	0.0	0	0	0	PAL2	0	R1121M
2058.898	0.016	583523	REC_END	n/a	n/a	n/a	n/a	6	-999	n/a	n/a	-999	5	[0, 0, 0]	n/a	0	1	0	n/a	n/a	0.0	0	0	0	PAL2	0	R1121M
2058.914	0.25	583531	TEST_ORIENT	n/a	n/a	YARD	PIN	1	5	PIN	n/a	0	5	[0, 0, 0]	n/a	0	1	0	n/a	n/a	0.0	0	0	0	PAL2	0	R1121M
2059.831	0.0	583990	REC_START	n/a	n/a	n/a	n/a	1	-999	n/a	n/a	0	5	[0, 0, 0]	n/a	0	1	0	n/a	n/a	0.0	0	0	0	PAL2	0	R1121M
2059.831	4.0	583990	TEST_PROBE	n/a	wordpools/wordpool_EN.txt	YARD	PIN	1	5	PIN	n/a	0	5	[0, 0, 0]	n/a	0	1	0	n/a	n/a	0.0	0	0	0	PAL2	0	R1121M
2064.346	0.503	586247	REC_EVENT	4.515	n/a	YARD	PIN	1	5	PIN	<>	0	5	[0, 0, 0]	n/a	0	1	0	n/a	n/a	0.0	0	0	0	PAL2	0	R1121M
2064.849	0.017	586498	REC_END	n/a	n/a	n/a	n/a	1	-999	n/a	n/a	-999	5	[0, 0, 0]	n/a	0	1	0	n/a	n/a	0.0	0	0	0	PAL2	0	R1121M
2064.866	0.25	586507	TEST_ORIENT	n/a	n/a	STONE	PET	4	6	PET	n/a	0	5	[0, 0, 0]	n/a	0	1	0	n/a	n/a	0.0	0	0	0	PAL2	0	R1121M
2065.639	4.6	586893	STIM_ON	n/a	n/a	STONE	PET	4	6	PET	n/a	0	5	[0, 0, 0]	n/a	1	1	4600	RFG1	RFG2	2000.0	50	230	300	PAL2	0	R1121M
2065.849	4.0	586998	TEST_PROBE	n/a	wordpools/wordpool_EN.txt	STONE	PET	4	6	PET	n/a	0	5	[0, 0, 0]	n/a	1	1	4600	RFG1	RFG2	2000.0	50	230	300	PAL2	0	R1121M
2065.85	4.509	586999	REC_START	n/a	n/a	n/a	n/a	4	-999	n/a	n/a	0	5	[0, 0, 0]	n/a	1	1	4600	RFG1	RFG2	2000.0	50	230	300	PAL2	0	R1121M
2070.359	0.5	589253	REC_EVENT	4.509	n/a	STONE	PET	4	6	PET	<>	0	5	[0, 0, 0]	n/a	0	1	0	n/a	n/a	0.0	0	0	0	PAL2	0	R1121M
2070.859	4.294	589503	REC_END	n/a	n/a	n/a	n/a	4	-999	n/a	n/a	-999	5	[0, 0, 0]	n/a	0	1	0	n/a	n/a	0.0	0	0	0	PAL2	0	R1121M
2075.153	10.451	591650	ENCODING_START	n/a	n/a	n/a	n/a	0	-999	n/a	n/a	-999	6	[0, 0, 0]	n/a	0	1	0	n/a	n/a	0.0	0	0	0	PAL2	0	R1121M
2085.604	0.25	596875	STUDY_ORIENT	n/a	n/a	CAVE	SCHOOL	1	1	CAVE	SCHOOL	1	6	[0, 0, 0]	n/a	0	1	0	n/a	n/a	0.0	0	0	0	PAL2	0	R1121M
2086.421	4.6	597284	STIM_ON	n/a	n/a	CAVE	SCHOOL	1	1	CAVE	SCHOOL	1	6	[0, 0, 0]	n/a	1	1	4600	RFG1	RFG2	2000.0	50	230	300	PAL2	0	R1121M
2086.637	4.0	597392	STUDY_PAIR	n/a	wordpools/wordpool_EN.txt	CAVE	SCHOOL	1	1	CAVE	SCHOOL	1	6	[0, 0, 0]	n/a	1	1	4600	RFG1	RFG2	2000.0	50	230	300	PAL2	0	R1121M
2091.671	0.25	599908	STUDY_ORIENT	n/a	n/a	BLOOM	CART	2	2	BLOOM	CART	1	6	[0, 0, 0]	n/a	0	1	0	n/a	n/a	0.0	0	0	0	PAL2	0	R1121M
2092.655	4.0	600400	STUDY_PAIR	n/a	wordpools/wordpool_EN.txt	BLOOM	CART	2	2	BLOOM	CART	1	6	[0, 0, 0]	n/a	0	1	0	n/a	n/a	0.0	0	0	0	PAL2	0	R1121M
2097.689	0.25	602917	STUDY_ORIENT	n/a	n/a	THUMB	CHAIR	3	3	CHAIR	BLOOM	0	6	[0, 0, 0]	n/a	0	1	0	n/a	n/a	0.0	0	0	0	PAL2	0	R1121M
2098.408	4.6	603277	STIM_ON	n/a	n/a	THUMB	CHAIR	3	3	CHAIR	BLOOM	0	6	[0, 0, 0]	n/a	1	1	4600	RFG1	RFG2	2000.0	50	230	300	PAL2	0	R1121M
2098.622	4.0	603384	STUDY_PAIR	n/a	wordpools/wordpool_EN.txt	THUMB	CHAIR	3	3	CHAIR	BLOOM	0	6	[0, 0, 0]	n/a	1	1	4600	RFG1	RFG2	2000.0	50	230	300	PAL2	0	R1121M
2103.64	0.25	605892	STUDY_ORIENT	n/a	n/a	MUG	BEE	4	6	BEE	CHAIR	0	6	[0, 0, 0]	n/a	0	1	0	n/a	n/a	0.0	0	0	0	PAL2	0	R1121M
2104.541	4.0	606343	STUDY_PAIR	n/a	wordpools/wordpool_EN.txt	MUG	BEE	4	6	BEE	CHAIR	0	6	[0, 0, 0]	n/a	0	1	0	n/a	n/a	0.0	0	0	0	PAL2	0	R1121M
2109.559	0.25	608852	STUDY_ORIENT	n/a	n/a	FARM	WEB	5	5	FARM	n/a	0	6	[0, 0, 0]	n/a	0	1	0	n/a	n/a	0.0	0	0	0	PAL2	0	R1121M
2110.222	4.6	609183	STIM_ON	n/a	n/a	FARM	WEB	5	5	FARM	n/a	0	6	[0, 0, 0]	n/a	1	1	4600	RFG1	RFG2	2000.0	50	230	300	PAL2	0	R1121M
2110.425	4.0	609285	STUDY_PAIR	n/a	wordpools/wordpool_EN.txt	FARM	WEB	5	5	FARM	n/a	0	6	[0, 0, 0]	n/a	1	1	4600	RFG1	RFG2	2000.0	50	230	300	PAL2	0	R1121M
2115.459	0.25	611801	STUDY_ORIENT	n/a	n/a	BRIDGE	LOCK	6	4	LOCK	n/a	0	6	[0, 0, 0]	n/a	0	1	0	n/a	n/a	0.0	0	0	0	PAL2	0	R1121M
2116.326	4.0	612235	STUDY_PAIR	n/a	wordpools/wordpool_EN.txt	BRIDGE	LOCK	6	4	LOCK	n/a	0	6	[0, 0, 0]	n/a	0	1	0	n/a	n/a	0.0	0	0	0	PAL2	0	R1121M
2120.344	0.999	614244	START	n/a	n/a	n/a	n/a	-999	-999	n/a	n/a	-999	7	[-999, -999, -999]	n/a	0	1	0	n/a	n/a	0.0	0	0	0	PAL2	0	R1121M
2121.343	0.017	614743	MATH_START	n/a	n/a	n/a	n/a	-999	-999	n/a	n/a	-999	6	[0, 0, 0]	n/a	0	1	0	n/a	n/a	0.0	0	0	0	PAL2	0	R1121M
2121.36	6.501	614752	PROB	6.481	n/a	n/a	n/a	-999	-999	n/a	n/a	-999	7	[3, 5, 5]	13	0	1	0	n/a	n/a	0.0	0	0	0	PAL2	0	R1121M
2127.861	3.868	618002	PROB	3.836	n/a	n/a	n/a	-999	-999	n/a	n/a	-999	7	[3, 1, 9]	13	0	1	0	n/a	n/a	0.0	0	0	0	PAL2	0	R1121M
2131.729	5.984	619936	PROB	5.952	n/a	n/a	n/a	-999	-999	n/a	n/a	-999	7	[7, 4, 2]	13	0	1	0	n/a	n/a	0.0	0	0	0	PAL2	0	R1121M
2137.713	10.504	622928	PROB	10.504	n/a	n/a	n/a	-999	-999	n/a	n/a	-999	7	[9, 7, 3]	19	0	1	0	n/a	n/a	0.0	0	0	0	PAL2	0	R1121M
2148.217	0.015	628179	STOP	n/a	n/a	n/a	n/a	-999	-999	n/a	n/a	-999	7	[-999, -999, -999]	n/a	0	1	0	n/a	n/a	0.0	0	0	0	PAL2	0	R1121M
2148.232	0.0	628187	MATH_END	n/a	n/a	n/a	n/a	-999	-999	n/a	n/a	-999	6	[0, 0, 0]	n/a	0	1	0	n/a	n/a	0.0	0	0	0	PAL2	0	R1121M
2148.232	0.017	628187	TEST_START	n/a	n/a	n/a	n/a	-999	-999	n/a	n/a	-999	6	[0, 0, 0]	n/a	0	1	0	n/a	n/a	0.0	0	0	0	PAL2	0	R1121M
2148.249	0.25	628195	TEST_ORIENT	n/a	n/a	CAVE	SCHOOL	1	1	CAVE	SCHOOL	1	6	[0, 0, 0]	n/a	0	1	0	n/a	n/a	0.0	0	0	0	PAL2	0	R1121M
2149.116	4.0	628629	TEST_PROBE	n/a	wordpools/wordpool_EN.txt	CAVE	SCHOOL	1	1	CAVE	SCHOOL	1	6	[0, 0, 0]	n/a	0	1	0	n/a	n/a	0.0	0	0	0	PAL2	0	R1121M
2149.116	1.456	628629	REC_START	n/a	n/a	n/a	n/a	1	-999	n/a	SCHOOL	1	6	[0, 0, 0]	n/a	0	1	0	n/a	n/a	0.0	0	0	0	PAL2	0	R1121M
2150.572	3.561	629357	REC_EVENT	1.456	n/a	CAVE	SCHOOL	1	1	CAVE	SCHOOL	1	6	[0, 0, 0]	n/a	0	1	0	n/a	n/a	0.0	0	0	0	PAL2	0	R1121M
2154.133	0.017	631137	REC_END	n/a	n/a	n/a	n/a	1	-999	n/a	n/a	-999	6	[0, 0, 0]	n/a	0	1	0	n/a	n/a	0.0	0	0	0	PAL2	0	R1121M
2154.15	0.25	631145	TEST_ORIENT	n/a	n/a	BLOOM	CART	2	2	BLOOM	CART	1	6	[0, 0, 0]	n/a	0	1	0	n/a	n/a	0.0	0	0	0	PAL2	0	R1121M
2155.034	0.0	631587	REC_START	n/a	n/a	n/a	n/a	2	-999	n/a	CART	1	6	[0, 0, 0]	n/a	0	1	0	n/a	n/a	0.0	0	0	0	PAL2	0	R1121M
2155.034	4.0	631587	TEST_PROBE	n/a	wordpools/wordpool_EN.txt	BLOOM	CART	2	2	BLOOM	CART	1	6	[0, 0, 0]	n/a	0	1	0	n/a	n/a	0.0	0	0	0	PAL2	0	R1121M
2157.07	2.981	632605	REC_EVENT	2.036	n/a	BLOOM	CART	2	2	BLOOM	CART	1	6	[0, 0, 0]	n/a	0	1	0	n/a	n/a	0.0	0	0	0	PAL2	0	R1121M
2160.051	0.017	634096	REC_END	n/a	n/a	n/a	n/a	2	-999	n/a	n/a	-999	6	[0, 0, 0]	n/a	0	1	0	n/a	n/a	0.0	0	0	0	PAL2	0	R1121M
2160.068	0.25	634104	TEST_ORIENT	n/a	n/a	THUMB	CHAIR	3	3	CHAIR	BLOOM	0	6	[0, 0, 0]	n/a	0	1	0	n/a	n/a	0.0	0	0	0	PAL2	0	R1121M
2161.085	4.0	634613	TEST_PROBE	n/a	wordpools/wordpool_EN.txt	THUMB	CHAIR	3	3	CHAIR	BLOOM	0	6	[0, 0, 0]	n/a	0	1	0	n/a	n/a	0.0	0	0	0	PAL2	0	R1121M
2161.086	3.349	634613	REC_START	n/a	n/a	n/a	n/a	3	-999	n/a	BLOOM	0	6	[0, 0, 0]	n/a	0	1	0	n/a	n/a	0.0	0	0	0	PAL2	0	R1121M
2164.435	1.674	636288	REC_EVENT	3.349	n/a	THUMB	CHAIR	3	3	CHAIR	BLOOM	0	6	[0, 0, 0]	n/a	0	1	0	n/a	n/a	0.0	0	0	0	PAL2	0	R1121M
2166.109	0.01	637124	REC_END	n/a	n/a	n/a	n/a	3	-999	n/a	n/a	-999	6	[0, 0, 0]	n/a	0	1	0	n/a	n/a	0.0	0	0	0	PAL2	0	R1121M
2166.119	0.25	637129	TEST_ORIENT	n/a	n/a	BRIDGE	LOCK	6	4	LOCK	n/a	0	6	[0, 0, 0]	n/a	0	1	0	n/a	n/a	0.0	0	0	0	PAL2	0	R1121M
2167.003	4.0	637571	TEST_PROBE	n/a	wordpools/wordpool_EN.txt	BRIDGE	LOCK	6	4	LOCK	n/a	0	6	[0, 0, 0]	n/a	0	1	0	n/a	n/a	0.0	0	0	0	PAL2	0	R1121M
2167.003	4.515	637571	REC_START	n/a	n/a	n/a	n/a	6	-999	n/a	n/a	0	6	[0, 0, 0]	n/a	0	1	0	n/a	n/a	0.0	0	0	0	PAL2	0	R1121M
2171.518	0.502	639829	REC_EVENT	4.515	n/a	BRIDGE	LOCK	6	4	LOCK	<>	0	6	[0, 0, 0]	n/a	0	1	0	n/a	n/a	0.0	0	0	0	PAL2	0	R1121M
2172.02	0.017	640080	REC_END	n/a	n/a	n/a	n/a	6	-999	n/a	n/a	-999	6	[0, 0, 0]	n/a	0	1	0	n/a	n/a	0.0	0	0	0	PAL2	0	R1121M
2172.037	0.25	640088	TEST_ORIENT	n/a	n/a	FARM	WEB	5	5	FARM	n/a	0	6	[0, 0, 0]	n/a	0	1	0	n/a	n/a	0.0	0	0	0	PAL2	0	R1121M
2172.904	4.0	640522	TEST_PROBE	n/a	wordpools/wordpool_EN.txt	FARM	WEB	5	5	FARM	n/a	0	6	[0, 0, 0]	n/a	0	1	0	n/a	n/a	0.0	0	0	0	PAL2	0	R1121M
2172.904	4.515	640522	REC_START	n/a	n/a	n/a	n/a	5	-999	n/a	n/a	0	6	[0, 0, 0]	n/a	0	1	0	n/a	n/a	0.0	0	0	0	PAL2	0	R1121M
2177.419	0.502	642779	REC_EVENT	4.515	n/a	FARM	WEB	5	5	FARM	<>	0	6	[0, 0, 0]	n/a	0	1	0	n/a	n/a	0.0	0	0	0	PAL2	0	R1121M
2177.921	0.017	643030	REC_END	n/a	n/a	n/a	n/a	5	-999	n/a	n/a	-999	6	[0, 0, 0]	n/a	0	1	0	n/a	n/a	0.0	0	0	0	PAL2	0	R1121M
2177.938	0.25	643038	TEST_ORIENT	n/a	n/a	MUG	BEE	4	6	BEE	CHAIR	0	6	[0, 0, 0]	n/a	0	1	0	n/a	n/a	0.0	0	0	0	PAL2	0	R1121M
2178.838	4.0	643488	TEST_PROBE	n/a	wordpools/wordpool_EN.txt	MUG	BEE	4	6	BEE	CHAIR	0	6	[0, 0, 0]	n/a	0	1	0	n/a	n/a	0.0	0	0	0	PAL2	0	R1121M
2178.839	2.774	643489	REC_START	n/a	n/a	n/a	n/a	4	-999	n/a	CHAIR	0	6	[0, 0, 0]	n/a	0	1	0	n/a	n/a	0.0	0	0	0	PAL2	0	R1121M
2181.613	2.234	644876	REC_EVENT	2.774	n/a	MUG	BEE	4	6	BEE	CHAIR	0	6	[0, 0, 0]	n/a	0	1	0	n/a	n/a	0.0	0	0	0	PAL2	0	R1121M
2183.847	15.858	645993	REC_END	n/a	n/a	n/a	n/a	4	-999	n/a	n/a	-999	6	[0, 0, 0]	n/a	0	1	0	n/a	n/a	0.0	0	0	0	PAL2	0	R1121M
2199.705	10.439	653921	ENCODING_START	n/a	n/a	n/a	n/a	0	-999	n/a	n/a	-999	7	[0, 0, 0]	n/a	0	1	0	n/a	n/a	0.0	0	0	0	PAL2	0	R1121M
2210.144	0.25	659140	STUDY_ORIENT	n/a	n/a	WOLF	BEAN	1	1	BEAN	n/a	0	7	[0, 0, 0]	n/a	0	1	0	n/a	n/a	0.0	0	0	0	PAL2	0	R1121M
2210.961	4.0	659549	STUDY_PAIR	n/a	wordpools/wordpool_EN.txt	WOLF	BEAN	1	1	BEAN	n/a	0	7	[0, 0, 0]	n/a	0	1	0	n/a	n/a	0.0	0	0	0	PAL2	0	R1121M
2215.979	0.25	662057	STUDY_ORIENT	n/a	n/a	WEED	CLAY	2	6	CLAY	n/a	0	7	[0, 0, 0]	n/a	0	1	0	n/a	n/a	0.0	0	0	0	PAL2	0	R1121M
2216.829	4.0	662482	STUDY_PAIR	n/a	wordpools/wordpool_EN.txt	WEED	CLAY	2	6	CLAY	n/a	0	7	[0, 0, 0]	n/a	0	1	0	n/a	n/a	0.0	0	0	0	PAL2	0	R1121M
2221.847	0.25	664991	STUDY_ORIENT	n/a	n/a	PIG	ROOT	3	3	ROOT	n/a	0	7	[0, 0, 0]	n/a	0	1	0	n/a	n/a	0.0	0	0	0	PAL2	0	R1121M
2222.831	4.0	665483	STUDY_PAIR	n/a	wordpools/wordpool_EN.txt	PIG	ROOT	3	3	ROOT	n/a	0	7	[0, 0, 0]	n/a	0	1	0	n/a	n/a	0.0	0	0	0	PAL2	0	R1121M
2227.865	0.25	668000	STUDY_ORIENT	n/a	n/a	COW	PLATE	4	2	COW	PLATE	1	7	[0, 0, 0]	n/a	0	1	0	n/a	n/a	0.0	0	0	0	PAL2	0	R1121M
2228.748	4.0	668441	STUDY_PAIR	n/a	wordpools/wordpool_EN.txt	COW	PLATE	4	2	COW	PLATE	1	7	[0, 0, 0]	n/a	0	1	0	n/a	n/a	0.0	0	0	0	PAL2	0	R1121M
2233.766	0.25	670950	STUDY_ORIENT	n/a	n/a	DOCK	NAIL	5	5	DOCK	PRINCE	0	7	[0, 0, 0]	n/a	0	1	0	n/a	n/a	0.0	0	0	0	PAL2	0	R1121M
2234.749	4.0	671442	STUDY_PAIR	n/a	wordpools/wordpool_EN.txt	DOCK	NAIL	5	5	DOCK	PRINCE	0	7	[0, 0, 0]	n/a	0	1	0	n/a	n/a	0.0	0	0	0	PAL2	0	R1121M
2239.767	0.25	673951	STUDY_ORIENT	n/a	n/a	SHIRT	PRINCE	6	4	PRINCE	n/a	0	7	[0, 0, 0]	n/a	0	1	0	n/a	n/a	0.0	0	0	0	PAL2	0	R1121M
2240.784	4.0	674459	STUDY_PAIR	n/a	wordpools/wordpool_EN.txt	SHIRT	PRINCE	6	4	PRINCE	n/a	0	7	[0, 0, 0]	n/a	0	1	0	n/a	n/a	0.0	0	0	0	PAL2	0	R1121M
2244.802	0.999	676468	START	n/a	n/a	n/a	n/a	-999	-999	n/a	n/a	-999	8	[-999, -999, -999]	n/a	0	1	0	n/a	n/a	0.0	0	0	0	PAL2	0	R1121M
2245.801	0.017	676967	MATH_START	n/a	n/a	n/a	n/a	-999	-999	n/a	n/a	-999	7	[0, 0, 0]	n/a	0	1	0	n/a	n/a	0.0	0	0	0	PAL2	0	R1121M
2245.818	17.17	676976	PROB	17.135	n/a	n/a	n/a	-999	-999	n/a	n/a	-999	8	[3, 5, 9]	17	0	1	0	n/a	n/a	0.0	0	0	0	PAL2	0	R1121M
2262.988	6.125	685560	PROB	6.125	n/a	n/a	n/a	-999	-999	n/a	n/a	-999	8	[9, 9, 5]	23	0	1	0	n/a	n/a	0.0	0	0	0	PAL2	0	R1121M
2269.113	0.01	688622	STOP	n/a	n/a	n/a	n/a	-999	-999	n/a	n/a	-999	8	[-999, -999, -999]	n/a	0	1	0	n/a	n/a	0.0	0	0	0	PAL2	0	R1121M
2269.123	0.0	688627	MATH_END	n/a	n/a	n/a	n/a	-999	-999	n/a	n/a	-999	7	[0, 0, 0]	n/a	0	1	0	n/a	n/a	0.0	0	0	0	PAL2	0	R1121M
2269.123	0.017	688627	TEST_START	n/a	n/a	n/a	n/a	-999	-999	n/a	n/a	-999	7	[0, 0, 0]	n/a	0	1	0	n/a	n/a	0.0	0	0	0	PAL2	0	R1121M
2269.14	0.25	688636	TEST_ORIENT	n/a	n/a	WOLF	BEAN	1	1	BEAN	n/a	0	7	[0, 0, 0]	n/a	0	1	0	n/a	n/a	0.0	0	0	0	PAL2	0	R1121M
2270.173	4.0	689152	TEST_PROBE	n/a	wordpools/wordpool_EN.txt	WOLF	BEAN	1	1	BEAN	n/a	0	7	[0, 0, 0]	n/a	0	1	0	n/a	n/a	0.0	0	0	0	PAL2	0	R1121M
2270.174	4.509	689153	REC_START	n/a	n/a	n/a	n/a	1	-999	n/a	n/a	0	7	[0, 0, 0]	n/a	0	1	0	n/a	n/a	0.0	0	0	0	PAL2	0	R1121M
2274.683	0.499	691407	REC_EVENT	4.509	n/a	WOLF	BEAN	1	1	BEAN	<>	0	7	[0, 0, 0]	n/a	0	1	0	n/a	n/a	0.0	0	0	0	PAL2	0	R1121M
2275.182	0.009	691657	REC_END	n/a	n/a	n/a	n/a	1	-999	n/a	n/a	-999	7	[0, 0, 0]	n/a	0	1	0	n/a	n/a	0.0	0	0	0	PAL2	0	R1121M
2275.191	0.25	691661	TEST_ORIENT	n/a	n/a	COW	PLATE	4	2	COW	PLATE	1	7	[0, 0, 0]	n/a	0	1	0	n/a	n/a	0.0	0	0	0	PAL2	0	R1121M
2275.87	4.6	692001	STIM_ON	n/a	n/a	COW	PLATE	4	2	COW	PLATE	1	7	[0, 0, 0]	n/a	1	1	4600	RFG1	RFG2	2000.0	50	230	300	PAL2	0	R1121M
2276.074	4.0	692103	TEST_PROBE	n/a	wordpools/wordpool_EN.txt	COW	PLATE	4	2	COW	PLATE	1	7	[0, 0, 0]	n/a	1	1	4600	RFG1	RFG2	2000.0	50	230	300	PAL2	0	R1121M
2276.075	1.312	692103	REC_START	n/a	n/a	n/a	n/a	4	-999	n/a	PLATE	1	7	[0, 0, 0]	n/a	1	1	4600	RFG1	RFG2	2000.0	50	230	300	PAL2	0	R1121M
2277.387	3.696	692759	REC_EVENT	1.312	n/a	COW	PLATE	4	2	COW	PLATE	1	7	[0, 0, 0]	n/a	1	1	4600	RFG1	RFG2	2000.0	50	230	300	PAL2	0	R1121M
2281.083	0.009	694607	REC_END	n/a	n/a	n/a	n/a	4	-999	n/a	n/a	-999	7	[0, 0, 0]	n/a	0	1	0	n/a	n/a	0.0	0	0	0	PAL2	0	R1121M
2281.092	0.25	694611	TEST_ORIENT	n/a	n/a	PIG	ROOT	3	3	ROOT	n/a	0	7	[0, 0, 0]	n/a	0	1	0	n/a	n/a	0.0	0	0	0	PAL2	0	R1121M
2281.942	4.0	695036	TEST_PROBE	n/a	wordpools/wordpool_EN.txt	PIG	ROOT	3	3	ROOT	n/a	0	7	[0, 0, 0]	n/a	0	1	0	n/a	n/a	0.0	0	0	0	PAL2	0	R1121M
2281.943	4.509	695037	REC_START	n/a	n/a	n/a	n/a	3	-999	n/a	n/a	0	7	[0, 0, 0]	n/a	0	1	0	n/a	n/a	0.0	0	0	0	PAL2	0	R1121M
2286.452	0.499	697291	REC_EVENT	4.509	n/a	PIG	ROOT	3	3	ROOT	<>	0	7	[0, 0, 0]	n/a	0	1	0	n/a	n/a	0.0	0	0	0	PAL2	0	R1121M
2286.951	0.009	697541	REC_END	n/a	n/a	n/a	n/a	3	-999	n/a	n/a	-999	7	[0, 0, 0]	n/a	0	1	0	n/a	n/a	0.0	0	0	0	PAL2	0	R1121M
2286.96	0.25	697545	TEST_ORIENT	n/a	n/a	SHIRT	PRINCE	6	4	PRINCE	n/a	0	7	[0, 0, 0]	n/a	0	1	0	n/a	n/a	0.0	0	0	0	PAL2	0	R1121M
2287.578	4.6	697854	STIM_ON	n/a	n/a	SHIRT	PRINCE	6	4	PRINCE	n/a	0	7	[0, 0, 0]	n/a	1	1	4600	RFG1	RFG2	2000.0	50	230	300	PAL2	0	R1121M
2287.793	4.0	697962	TEST_PROBE	n/a	wordpools/wordpool_EN.txt	SHIRT	PRINCE	6	4	PRINCE	n/a	0	7	[0, 0, 0]	n/a	1	1	4600	RFG1	RFG2	2000.0	50	230	300	PAL2	0	R1121M
2287.794	4.509	697962	REC_START	n/a	n/a	n/a	n/a	6	-999	n/a	n/a	0	7	[0, 0, 0]	n/a	1	1	4600	RFG1	RFG2	2000.0	50	230	300	PAL2	0	R1121M
2292.303	0.499	700216	REC_EVENT	4.509	n/a	SHIRT	PRINCE	6	4	PRINCE	<>	0	7	[0, 0, 0]	n/a	0	1	0	n/a	n/a	0.0	0	0	0	PAL2	0	R1121M
2292.802	0.009	700466	REC_END	n/a	n/a	n/a	n/a	6	-999	n/a	n/a	-999	7	[0, 0, 0]	n/a	0	1	0	n/a	n/a	0.0	0	0	0	PAL2	0	R1121M
2292.811	0.25	700470	TEST_ORIENT	n/a	n/a	DOCK	NAIL	5	5	DOCK	PRINCE	0	7	[0, 0, 0]	n/a	0	1	0	n/a	n/a	0.0	0	0	0	PAL2	0	R1121M
2293.711	4.0	700920	TEST_PROBE	n/a	wordpools/wordpool_EN.txt	DOCK	NAIL	5	5	DOCK	PRINCE	0	7	[0, 0, 0]	n/a	0	1	0	n/a	n/a	0.0	0	0	0	PAL2	0	R1121M
2293.712	2.77	700921	REC_START	n/a	n/a	n/a	n/a	5	-999	n/a	PRINCE	0	7	[0, 0, 0]	n/a	0	1	0	n/a	n/a	0.0	0	0	0	PAL2	0	R1121M
2296.482	2.238	702306	REC_EVENT	2.77	n/a	DOCK	NAIL	5	5	DOCK	PRINCE	0	7	[0, 0, 0]	n/a	0	1	0	n/a	n/a	0.0	0	0	0	PAL2	0	R1121M
2298.72	0.009	703425	REC_END	n/a	n/a	n/a	n/a	5	-999	n/a	n/a	-999	7	[0, 0, 0]	n/a	0	1	0	n/a	n/a	0.0	0	0	0	PAL2	0	R1121M
2298.729	0.25	703429	TEST_ORIENT	n/a	n/a	WEED	CLAY	2	6	CLAY	n/a	0	7	[0, 0, 0]	n/a	0	1	0	n/a	n/a	0.0	0	0	0	PAL2	0	R1121M
2299.528	4.6	703829	STIM_ON	n/a	n/a	WEED	CLAY	2	6	CLAY	n/a	0	7	[0, 0, 0]	n/a	1	1	4600	RFG1	RFG2	2000.0	50	230	300	PAL2	0	R1121M
2299.729	4.0	703929	TEST_PROBE	n/a	wordpools/wordpool_EN.txt	WEED	CLAY	2	6	CLAY	n/a	0	7	[0, 0, 0]	n/a	1	1	4600	RFG1	RFG2	2000.0	50	230	300	PAL2	0	R1121M
2299.73	4.515	703930	REC_START	n/a	n/a	n/a	n/a	2	-999	n/a	n/a	0	7	[0, 0, 0]	n/a	1	1	4600	RFG1	RFG2	2000.0	50	230	300	PAL2	0	R1121M
2304.245	0.501	706187	REC_EVENT	4.515	n/a	WEED	CLAY	2	6	CLAY	<>	0	7	[0, 0, 0]	n/a	0	1	0	n/a	n/a	0.0	0	0	0	PAL2	0	R1121M
2304.746	11.455	706437	REC_END	n/a	n/a	n/a	n/a	2	-999	n/a	n/a	-999	7	[0, 0, 0]	n/a	0	1	0	n/a	n/a	0.0	0	0	0	PAL2	0	R1121M
2316.201	10.45	712164	ENCODING_START	n/a	n/a	n/a	n/a	0	-999	n/a	n/a	-999	8	[0, 0, 0]	n/a	0	1	0	n/a	n/a	0.0	0	0	0	PAL2	0	R1121M
2326.651	0.25	717389	STUDY_ORIENT	n/a	n/a	PURSE	GOAT	1	1	PURSE	n/a	0	8	[0, 0, 0]	n/a	0	1	0	n/a	n/a	0.0	0	0	0	PAL2	0	R1121M
2327.586	4.0	717857	STUDY_PAIR	n/a	wordpools/wordpool_EN.txt	PURSE	GOAT	1	1	PURSE	n/a	0	8	[0, 0, 0]	n/a	0	1	0	n/a	n/a	0.0	0	0	0	PAL2	0	R1121M
2332.619	0.25	720373	STUDY_ORIENT	n/a	n/a	STRAW	TRASH	2	4	TRASH	n/a	0	8	[0, 0, 0]	n/a	0	1	0	n/a	n/a	0.0	0	0	0	PAL2	0	R1121M
2333.537	4.0	720832	STUDY_PAIR	n/a	wordpools/wordpool_EN.txt	STRAW	TRASH	2	4	TRASH	n/a	0	8	[0, 0, 0]	n/a	0	1	0	n/a	n/a	0.0	0	0	0	PAL2	0	R1121M
2338.571	0.25	723349	STUDY_ORIENT	n/a	n/a	CRANE	SEAL	3	3	CRANE	n/a	0	8	[0, 0, 0]	n/a	0	1	0	n/a	n/a	0.0	0	0	0	PAL2	0	R1121M
2339.588	4.0	723857	STUDY_PAIR	n/a	wordpools/wordpool_EN.txt	CRANE	SEAL	3	3	CRANE	n/a	0	8	[0, 0, 0]	n/a	0	1	0	n/a	n/a	0.0	0	0	0	PAL2	0	R1121M
2344.621	0.25	726373	STUDY_ORIENT	n/a	n/a	MUD	SINK	4	2	MUD	n/a	0	8	[0, 0, 0]	n/a	0	1	0	n/a	n/a	0.0	0	0	0	PAL2	0	R1121M
2345.521	4.0	726823	STUDY_PAIR	n/a	wordpools/wordpool_EN.txt	MUD	SINK	4	2	MUD	n/a	0	8	[0, 0, 0]	n/a	0	1	0	n/a	n/a	0.0	0	0	0	PAL2	0	R1121M
2350.557	0.25	729341	STUDY_ORIENT	n/a	n/a	CLOCK	PASTE	5	5	CLOCK	n/a	0	8	[0, 0, 0]	n/a	0	1	0	n/a	n/a	0.0	0	0	0	PAL2	0	R1121M
2351.473	4.0	729799	STUDY_PAIR	n/a	wordpools/wordpool_EN.txt	CLOCK	PASTE	5	5	CLOCK	n/a	0	8	[0, 0, 0]	n/a	0	1	0	n/a	n/a	0.0	0	0	0	PAL2	0	R1121M
2356.507	0.25	732316	STUDY_ORIENT	n/a	n/a	PLANT	DUCK	6	6	PLANT	n/a	0	8	[0, 0, 0]	n/a	0	1	0	n/a	n/a	0.0	0	0	0	PAL2	0	R1121M
2357.324	4.0	732724	STUDY_PAIR	n/a	wordpools/wordpool_EN.txt	PLANT	DUCK	6	6	PLANT	n/a	0	8	[0, 0, 0]	n/a	0	1	0	n/a	n/a	0.0	0	0	0	PAL2	0	R1121M
2361.342	0.999	734733	START	n/a	n/a	n/a	n/a	-999	-999	n/a	n/a	-999	9	[-999, -999, -999]	n/a	0	1	0	n/a	n/a	0.0	0	0	0	PAL2	0	R1121M
2362.341	0.017	735233	MATH_START	n/a	n/a	n/a	n/a	-999	-999	n/a	n/a	-999	8	[0, 0, 0]	n/a	0	1	0	n/a	n/a	0.0	0	0	0	PAL2	0	R1121M
2362.358	7.219	735241	PROB	7.188	n/a	n/a	n/a	-999	-999	n/a	n/a	-999	9	[2, 3, 8]	13	0	1	0	n/a	n/a	0.0	0	0	0	PAL2	0	R1121M
2369.577	3.951	738850	PROB	3.928	n/a	n/a	n/a	-999	-999	n/a	n/a	-999	9	[8, 5, 5]	18	0	1	0	n/a	n/a	0.0	0	0	0	PAL2	0	R1121M
2373.528	15.665	740826	PROB	15.665	n/a	n/a	n/a	-999	-999	n/a	n/a	-999	9	[7, 8, 5]	31	0	1	0	n/a	n/a	0.0	0	0	0	PAL2	0	R1121M
2389.193	0.004	748658	STOP	n/a	n/a	n/a	n/a	-999	-999	n/a	n/a	-999	9	[-999, -999, -999]	n/a	0	1	0	n/a	n/a	0.0	0	0	0	PAL2	0	R1121M
2389.197	0.0	748660	MATH_END	n/a	n/a	n/a	n/a	-999	-999	n/a	n/a	-999	8	[0, 0, 0]	n/a	0	1	0	n/a	n/a	0.0	0	0	0	PAL2	0	R1121M
2389.197	0.016	748660	TEST_START	n/a	n/a	n/a	n/a	-999	-999	n/a	n/a	-999	8	[0, 0, 0]	n/a	0	1	0	n/a	n/a	0.0	0	0	0	PAL2	0	R1121M
2389.213	0.25	748668	TEST_ORIENT	n/a	n/a	PURSE	GOAT	1	1	PURSE	n/a	0	8	[0, 0, 0]	n/a	0	1	0	n/a	n/a	0.0	0	0	0	PAL2	0	R1121M
2389.858	4.6	748990	STIM_ON	n/a	n/a	PURSE	GOAT	1	1	PURSE	n/a	0	8	[0, 0, 0]	n/a	1	1	4600	RFG1	RFG2	2000.0	50	230	300	PAL2	0	R1121M
2390.064	4.0	749093	TEST_PROBE	n/a	wordpools/wordpool_EN.txt	PURSE	GOAT	1	1	PURSE	n/a	0	8	[0, 0, 0]	n/a	1	1	4600	RFG1	RFG2	2000.0	50	230	300	PAL2	0	R1121M
2390.064	4.515	749093	REC_START	n/a	n/a	n/a	n/a	1	-999	n/a	n/a	0	8	[0, 0, 0]	n/a	1	1	4600	RFG1	RFG2	2000.0	50	230	300	PAL2	0	R1121M
2394.579	0.502	751350	REC_EVENT	4.515	n/a	PURSE	GOAT	1	1	PURSE	<>	0	8	[0, 0, 0]	n/a	0	1	0	n/a	n/a	0.0	0	0	0	PAL2	0	R1121M
2395.081	0.017	751601	REC_END	n/a	n/a	n/a	n/a	1	-999	n/a	n/a	-999	8	[0, 0, 0]	n/a	0	1	0	n/a	n/a	0.0	0	0	0	PAL2	0	R1121M
2395.098	0.25	751610	TEST_ORIENT	n/a	n/a	MUD	SINK	4	2	MUD	n/a	0	8	[0, 0, 0]	n/a	0	1	0	n/a	n/a	0.0	0	0	0	PAL2	0	R1121M
2396.082	4.0	752102	TEST_PROBE	n/a	wordpools/wordpool_EN.txt	MUD	SINK	4	2	MUD	n/a	0	8	[0, 0, 0]	n/a	0	1	0	n/a	n/a	0.0	0	0	0	PAL2	0	R1121M
2396.082	4.515	752102	REC_START	n/a	n/a	n/a	n/a	4	-999	n/a	n/a	0	8	[0, 0, 0]	n/a	0	1	0	n/a	n/a	0.0	0	0	0	PAL2	0	R1121M
2400.597	0.502	754359	REC_EVENT	4.515	n/a	MUD	SINK	4	2	MUD	<>	0	8	[0, 0, 0]	n/a	0	1	0	n/a	n/a	0.0	0	0	0	PAL2	0	R1121M
2401.099	0.017	754610	REC_END	n/a	n/a	n/a	n/a	4	-999	n/a	n/a	-999	8	[0, 0, 0]	n/a	0	1	0	n/a	n/a	0.0	0	0	0	PAL2	0	R1121M
2401.116	0.25	754619	TEST_ORIENT	n/a	n/a	CRANE	SEAL	3	3	CRANE	n/a	0	8	[0, 0, 0]	n/a	0	1	0	n/a	n/a	0.0	0	0	0	PAL2	0	R1121M
2401.848	4.6	754985	STIM_ON	n/a	n/a	CRANE	SEAL	3	3	CRANE	n/a	0	8	[0, 0, 0]	n/a	1	1	4600	RFG1	RFG2	2000.0	50	230	300	PAL2	0	R1121M
2402.049	4.0	755085	TEST_PROBE	n/a	wordpools/wordpool_EN.txt	CRANE	SEAL	3	3	CRANE	n/a	0	8	[0, 0, 0]	n/a	1	1	4600	RFG1	RFG2	2000.0	50	230	300	PAL2	0	R1121M
2402.05	4.503	755086	REC_START	n/a	n/a	n/a	n/a	3	-999	n/a	n/a	0	8	[0, 0, 0]	n/a	1	1	4600	RFG1	RFG2	2000.0	50	230	300	PAL2	0	R1121M
2406.553	0.505	757337	REC_EVENT	4.503	n/a	CRANE	SEAL	3	3	CRANE	<>	0	8	[0, 0, 0]	n/a	0	1	0	n/a	n/a	0.0	0	0	0	PAL2	0	R1121M
2407.058	0.009	757589	REC_END	n/a	n/a	n/a	n/a	3	-999	n/a	n/a	-999	8	[0, 0, 0]	n/a	0	1	0	n/a	n/a	0.0	0	0	0	PAL2	0	R1121M
2407.067	0.25	757594	TEST_ORIENT	n/a	n/a	STRAW	TRASH	2	4	TRASH	n/a	0	8	[0, 0, 0]	n/a	0	1	0	n/a	n/a	0.0	0	0	0	PAL2	0	R1121M
2407.951	4.0	758036	TEST_PROBE	n/a	wordpools/wordpool_EN.txt	STRAW	TRASH	2	4	TRASH	n/a	0	8	[0, 0, 0]	n/a	0	1	0	n/a	n/a	0.0	0	0	0	PAL2	0	R1121M
2407.951	4.515	758036	REC_START	n/a	n/a	n/a	n/a	2	-999	n/a	n/a	0	8	[0, 0, 0]	n/a	0	1	0	n/a	n/a	0.0	0	0	0	PAL2	0	R1121M
2412.466	0.502	760293	REC_EVENT	4.515	n/a	STRAW	TRASH	2	4	TRASH	<>	0	8	[0, 0, 0]	n/a	0	1	0	n/a	n/a	0.0	0	0	0	PAL2	0	R1121M
2412.968	0.017	760544	REC_END	n/a	n/a	n/a	n/a	2	-999	n/a	n/a	-999	8	[0, 0, 0]	n/a	0	1	0	n/a	n/a	0.0	0	0	0	PAL2	0	R1121M
2412.985	0.25	760553	TEST_ORIENT	n/a	n/a	CLOCK	PASTE	5	5	CLOCK	n/a	0	8	[0, 0, 0]	n/a	0	1	0	n/a	n/a	0.0	0	0	0	PAL2	0	R1121M
2413.724	4.6	760922	STIM_ON	n/a	n/a	CLOCK	PASTE	5	5	CLOCK	n/a	0	8	[0, 0, 0]	n/a	1	1	4600	RFG1	RFG2	2000.0	50	230	300	PAL2	0	R1121M
2413.935	4.0	761028	TEST_PROBE	n/a	wordpools/wordpool_EN.txt	CLOCK	PASTE	5	5	CLOCK	n/a	0	8	[0, 0, 0]	n/a	1	1	4600	RFG1	RFG2	2000.0	50	230	300	PAL2	0	R1121M
2413.936	4.509	761028	REC_START	n/a	n/a	n/a	n/a	5	-999	n/a	n/a	0	8	[0, 0, 0]	n/a	1	1	4600	RFG1	RFG2	2000.0	50	230	300	PAL2	0	R1121M
2418.445	0.499	763282	REC_EVENT	4.509	n/a	CLOCK	PASTE	5	5	CLOCK	<>	0	8	[0, 0, 0]	n/a	0	1	0	n/a	n/a	0.0	0	0	0	PAL2	0	R1121M
2418.944	0.009	763532	REC_END	n/a	n/a	n/a	n/a	5	-999	n/a	n/a	-999	8	[0, 0, 0]	n/a	0	1	0	n/a	n/a	0.0	0	0	0	PAL2	0	R1121M
2418.953	0.25	763536	TEST_ORIENT	n/a	n/a	PLANT	DUCK	6	6	PLANT	n/a	0	8	[0, 0, 0]	n/a	0	1	0	n/a	n/a	0.0	0	0	0	PAL2	0	R1121M
2419.886	4.0	764003	TEST_PROBE	n/a	wordpools/wordpool_EN.txt	PLANT	DUCK	6	6	PLANT	n/a	0	8	[0, 0, 0]	n/a	0	1	0	n/a	n/a	0.0	0	0	0	PAL2	0	R1121M
2419.887	4.509	764003	REC_START	n/a	n/a	n/a	n/a	6	-999	n/a	n/a	0	8	[0, 0, 0]	n/a	0	1	0	n/a	n/a	0.0	0	0	0	PAL2	0	R1121M
2424.396	0.499	766258	REC_EVENT	4.509	n/a	PLANT	DUCK	6	6	PLANT	<>	0	8	[0, 0, 0]	n/a	0	1	0	n/a	n/a	0.0	0	0	0	PAL2	0	R1121M
2424.895	43.234	766507	REC_END	n/a	n/a	n/a	n/a	6	-999	n/a	n/a	-999	8	[0, 0, 0]	n/a	0	1	0	n/a	n/a	0.0	0	0	0	PAL2	0	R1121M
2468.129	10.453	788122	ENCODING_START	n/a	n/a	n/a	n/a	0	-999	n/a	n/a	-999	9	[0, 0, 0]	n/a	0	1	0	n/a	n/a	0.0	0	0	0	PAL2	0	R1121M
2478.582	0.25	793349	STUDY_ORIENT	n/a	n/a	EGG	PIE	1	1	EGG	n/a	0	9	[0, 0, 0]	n/a	0	1	0	n/a	n/a	0.0	0	0	0	PAL2	0	R1121M
2479.394	4.6	793754	STIM_ON	n/a	n/a	EGG	PIE	1	1	EGG	n/a	0	9	[0, 0, 0]	n/a	1	1	4600	RFG1	RFG2	2000.0	50	230	300	PAL2	0	R1121M
2479.599	4.0	793857	STUDY_PAIR	n/a	wordpools/wordpool_EN.txt	EGG	PIE	1	1	EGG	n/a	0	9	[0, 0, 0]	n/a	1	1	4600	RFG1	RFG2	2000.0	50	230	300	PAL2	0	R1121M
2484.616	0.25	796365	STUDY_ORIENT	n/a	n/a	MAZE	CAR	2	6	CAR	n/a	0	9	[0, 0, 0]	n/a	0	1	0	n/a	n/a	0.0	0	0	0	PAL2	0	R1121M
2485.416	4.0	796765	STUDY_PAIR	n/a	wordpools/wordpool_EN.txt	MAZE	CAR	2	6	CAR	n/a	0	9	[0, 0, 0]	n/a	0	1	0	n/a	n/a	0.0	0	0	0	PAL2	0	R1121M
2490.45	0.25	799282	STUDY_ORIENT	n/a	n/a	HORSE	NEST	3	3	HORSE	n/a	0	9	[0, 0, 0]	n/a	0	1	0	n/a	n/a	0.0	0	0	0	PAL2	0	R1121M
2491.144	4.6	799629	STIM_ON	n/a	n/a	HORSE	NEST	3	3	HORSE	n/a	0	9	[0, 0, 0]	n/a	1	1	4600	RFG1	RFG2	2000.0	50	230	300	PAL2	0	R1121M
2491.351	4.0	799733	STUDY_PAIR	n/a	wordpools/wordpool_EN.txt	HORSE	NEST	3	3	HORSE	n/a	0	9	[0, 0, 0]	n/a	1	1	4600	RFG1	RFG2	2000.0	50	230	300	PAL2	0	R1121M
2496.385	0.25	802249	STUDY_ORIENT	n/a	n/a	EAR	PIPE	4	2	PIPE	n/a	0	9	[0, 0, 0]	n/a	0	1	0	n/a	n/a	0.0	0	0	0	PAL2	0	R1121M
2497.385	4.0	802749	STUDY_PAIR	n/a	wordpools/wordpool_EN.txt	EAR	PIPE	4	2	PIPE	n/a	0	9	[0, 0, 0]	n/a	0	1	0	n/a	n/a	0.0	0	0	0	PAL2	0	R1121M
2502.419	0.25	805266	STUDY_ORIENT	n/a	n/a	CALF	PEARL	5	5	CALF	FUR	0	9	[0, 0, 0]	n/a	0	1	0	n/a	n/a	0.0	0	0	0	PAL2	0	R1121M
2503.135	4.6	805624	STIM_ON	n/a	n/a	CALF	PEARL	5	5	CALF	FUR	0	9	[0, 0, 0]	n/a	1	1	4600	RFG1	RFG2	2000.0	50	230	300	PAL2	0	R1121M
2503.336	4.0	805725	STUDY_PAIR	n/a	wordpools/wordpool_EN.txt	CALF	PEARL	5	5	CALF	FUR	0	9	[0, 0, 0]	n/a	1	1	4600	RFG1	RFG2	2000.0	50	230	300	PAL2	0	R1121M
2508.354	0.25	808233	STUDY_ORIENT	n/a	n/a	TOOTH	BIRD	6	4	TOOTH	n/a	0	9	[0, 0, 0]	n/a	0	1	0	n/a	n/a	0.0	0	0	0	PAL2	0	R1121M
2509.237	4.0	808675	STUDY_PAIR	n/a	wordpools/wordpool_EN.txt	TOOTH	BIRD	6	4	TOOTH	n/a	0	9	[0, 0, 0]	n/a	0	1	0	n/a	n/a	0.0	0	0	0	PAL2	0	R1121M
2513.238	1.0	810675	START	n/a	n/a	n/a	n/a	-999	-999	n/a	n/a	-999	10	[-999, -999, -999]	n/a	0	1	0	n/a	n/a	0.0	0	0	0	PAL2	0	R1121M
2514.238	0.017	811175	MATH_START	n/a	n/a	n/a	n/a	-999	-999	n/a	n/a	-999	9	[0, 0, 0]	n/a	0	1	0	n/a	n/a	0.0	0	0	0	PAL2	0	R1121M
2514.255	7.735	811184	PROB	7.714	n/a	n/a	n/a	-999	-999	n/a	n/a	-999	10	[3, 9, 7]	21	0	1	0	n/a	n/a	0.0	0	0	0	PAL2	0	R1121M
2521.99	5.334	815051	PROB	5.307	n/a	n/a	n/a	-999	-999	n/a	n/a	-999	10	[3, 7, 8]	18	0	1	0	n/a	n/a	0.0	0	0	0	PAL2	0	R1121M
2527.324	5.585	817718	PROB	5.565	n/a	n/a	n/a	-999	-999	n/a	n/a	-999	10	[4, 1, 3]	8	0	1	0	n/a	n/a	0.0	0	0	0	PAL2	0	R1121M
2532.909	4.804	820510	PROB	4.804	n/a	n/a	n/a	-999	-999	n/a	n/a	-999	10	[1, 8, 9]	18	0	1	0	n/a	n/a	0.0	0	0	0	PAL2	0	R1121M
2537.713	0.013	822912	STOP	n/a	n/a	n/a	n/a	-999	-999	n/a	n/a	-999	10	[-999, -999, -999]	n/a	0	1	0	n/a	n/a	0.0	0	0	0	PAL2	0	R1121M
2537.726	0.0	822918	TEST_START	n/a	n/a	n/a	n/a	-999	-999	n/a	n/a	-999	9	[0, 0, 0]	n/a	0	1	0	n/a	n/a	0.0	0	0	0	PAL2	0	R1121M
2537.726	0.017	822918	MATH_END	n/a	n/a	n/a	n/a	-999	-999	n/a	n/a	-999	9	[0, 0, 0]	n/a	0	1	0	n/a	n/a	0.0	0	0	0	PAL2	0	R1121M
2537.743	0.25	822927	TEST_ORIENT	n/a	n/a	EGG	PIE	1	1	EGG	n/a	0	9	[0, 0, 0]	n/a	0	1	0	n/a	n/a	0.0	0	0	0	PAL2	0	R1121M
2538.777	4.0	823444	TEST_PROBE	n/a	wordpools/wordpool_EN.txt	EGG	PIE	1	1	EGG	n/a	0	9	[0, 0, 0]	n/a	0	1	0	n/a	n/a	0.0	0	0	0	PAL2	0	R1121M
2538.777	4.515	823444	REC_START	n/a	n/a	n/a	n/a	1	-999	n/a	n/a	0	9	[0, 0, 0]	n/a	0	1	0	n/a	n/a	0.0	0	0	0	PAL2	0	R1121M
2543.292	0.502	825701	REC_EVENT	4.515	n/a	EGG	PIE	1	1	EGG	<>	0	9	[0, 0, 0]	n/a	0	1	0	n/a	n/a	0.0	0	0	0	PAL2	0	R1121M
2543.794	0.017	825952	REC_END	n/a	n/a	n/a	n/a	1	-999	n/a	n/a	-999	9	[0, 0, 0]	n/a	0	1	0	n/a	n/a	0.0	0	0	0	PAL2	0	R1121M
2543.811	0.25	825960	TEST_ORIENT	n/a	n/a	EAR	PIPE	4	2	PIPE	n/a	0	9	[0, 0, 0]	n/a	0	1	0	n/a	n/a	0.0	0	0	0	PAL2	0	R1121M
2544.628	4.0	826369	TEST_PROBE	n/a	wordpools/wordpool_EN.txt	EAR	PIPE	4	2	PIPE	n/a	0	9	[0, 0, 0]	n/a	0	1	0	n/a	n/a	0.0	0	0	0	PAL2	0	R1121M
2544.628	4.515	826369	REC_START	n/a	n/a	n/a	n/a	4	-999	n/a	n/a	0	9	[0, 0, 0]	n/a	0	1	0	n/a	n/a	0.0	0	0	0	PAL2	0	R1121M
2549.143	0.502	828626	REC_EVENT	4.515	n/a	EAR	PIPE	4	2	PIPE	<>	0	9	[0, 0, 0]	n/a	0	1	0	n/a	n/a	0.0	0	0	0	PAL2	0	R1121M
2549.645	0.017	828877	REC_END	n/a	n/a	n/a	n/a	4	-999	n/a	n/a	-999	9	[0, 0, 0]	n/a	0	1	0	n/a	n/a	0.0	0	0	0	PAL2	0	R1121M
2549.662	0.25	828886	TEST_ORIENT	n/a	n/a	HORSE	NEST	3	3	HORSE	n/a	0	9	[0, 0, 0]	n/a	0	1	0	n/a	n/a	0.0	0	0	0	PAL2	0	R1121M
2550.662	4.0	829386	TEST_PROBE	n/a	wordpools/wordpool_EN.txt	HORSE	NEST	3	3	HORSE	n/a	0	9	[0, 0, 0]	n/a	0	1	0	n/a	n/a	0.0	0	0	0	PAL2	0	R1121M
2550.663	4.503	829386	REC_START	n/a	n/a	n/a	n/a	3	-999	n/a	n/a	0	9	[0, 0, 0]	n/a	0	1	0	n/a	n/a	0.0	0	0	0	PAL2	0	R1121M
2555.166	0.505	831637	REC_EVENT	4.503	n/a	HORSE	NEST	3	3	HORSE	<>	0	9	[0, 0, 0]	n/a	0	1	0	n/a	n/a	0.0	0	0	0	PAL2	0	R1121M
2555.671	0.009	831890	REC_END	n/a	n/a	n/a	n/a	3	-999	n/a	n/a	-999	9	[0, 0, 0]	n/a	0	1	0	n/a	n/a	0.0	0	0	0	PAL2	0	R1121M
2555.68	0.25	831894	TEST_ORIENT	n/a	n/a	TOOTH	BIRD	6	4	TOOTH	n/a	0	9	[0, 0, 0]	n/a	0	1	0	n/a	n/a	0.0	0	0	0	PAL2	0	R1121M
2556.581	4.0	832345	TEST_PROBE	n/a	wordpools/wordpool_EN.txt	TOOTH	BIRD	6	4	TOOTH	n/a	0	9	[0, 0, 0]	n/a	0	1	0	n/a	n/a	0.0	0	0	0	PAL2	0	R1121M
2556.582	4.509	832345	REC_START	n/a	n/a	n/a	n/a	6	-999	n/a	n/a	0	9	[0, 0, 0]	n/a	0	1	0	n/a	n/a	0.0	0	0	0	PAL2	0	R1121M
2561.091	0.499	834600	REC_EVENT	4.509	n/a	TOOTH	BIRD	6	4	TOOTH	<>	0	9	[0, 0, 0]	n/a	0	1	0	n/a	n/a	0.0	0	0	0	PAL2	0	R1121M
2561.59	0.009	834849	REC_END	n/a	n/a	n/a	n/a	6	-999	n/a	n/a	-999	9	[0, 0, 0]	n/a	0	1	0	n/a	n/a	0.0	0	0	0	PAL2	0	R1121M
2561.599	0.25	834854	TEST_ORIENT	n/a	n/a	CALF	PEARL	5	5	CALF	FUR	0	9	[0, 0, 0]	n/a	0	1	0	n/a	n/a	0.0	0	0	0	PAL2	0	R1121M
2562.498	0.0	835303	REC_START	n/a	n/a	n/a	n/a	5	-999	n/a	FUR	0	9	[0, 0, 0]	n/a	0	1	0	n/a	n/a	0.0	0	0	0	PAL2	0	R1121M
2562.498	4.0	835303	TEST_PROBE	n/a	wordpools/wordpool_EN.txt	CALF	PEARL	5	5	CALF	FUR	0	9	[0, 0, 0]	n/a	0	1	0	n/a	n/a	0.0	0	0	0	PAL2	0	R1121M
2564.823	1.66	836466	REC_EVENT	2.325	n/a	CALF	PEARL	5	5	CALF	CALF	0	9	[0, 0, 0]	n/a	0	1	0	n/a	n/a	0.0	0	0	0	PAL2	0	R1121M
2566.483	1.032	837296	REC_EVENT	3.985	n/a	CALF	PEARL	5	5	CALF	FUR	0	9	[0, 0, 0]	n/a	0	1	0	n/a	n/a	0.0	0	0	0	PAL2	0	R1121M
2567.515	0.018	837811	REC_END	n/a	n/a	n/a	n/a	5	-999	n/a	n/a	-999	9	[0, 0, 0]	n/a	0	1	0	n/a	n/a	0.0	0	0	0	PAL2	0	R1121M
2567.533	0.25	837820	TEST_ORIENT	n/a	n/a	MAZE	CAR	2	6	CAR	n/a	0	9	[0, 0, 0]	n/a	0	1	0	n/a	n/a	0.0	0	0	0	PAL2	0	R1121M
2568.433	4.0	838270	TEST_PROBE	n/a	wordpools/wordpool_EN.txt	MAZE	CAR	2	6	CAR	n/a	0	9	[0, 0, 0]	n/a	0	1	0	n/a	n/a	0.0	0	0	0	PAL2	0	R1121M
2568.433	4.515	838270	REC_START	n/a	n/a	n/a	n/a	2	-999	n/a	n/a	0	9	[0, 0, 0]	n/a	0	1	0	n/a	n/a	0.0	0	0	0	PAL2	0	R1121M
2572.948	0.502	840528	REC_EVENT	4.515	n/a	MAZE	CAR	2	6	CAR	<>	0	9	[0, 0, 0]	n/a	0	1	0	n/a	n/a	0.0	0	0	0	PAL2	0	R1121M
2573.45	5.775	840779	REC_END	n/a	n/a	n/a	n/a	2	-999	n/a	n/a	-999	9	[0, 0, 0]	n/a	0	1	0	n/a	n/a	0.0	0	0	0	PAL2	0	R1121M
2579.225	10.445	843666	ENCODING_START	n/a	n/a	n/a	n/a	0	-999	n/a	n/a	-999	10	[0, 0, 0]	n/a	0	1	0	n/a	n/a	0.0	0	0	0	PAL2	0	R1121M
2589.67	0.25	848888	STUDY_ORIENT	n/a	n/a	CROWN	SOCK	1	5	SOCK	n/a	0	10	[0, 0, 0]	n/a	0	1	0	n/a	n/a	0.0	0	0	0	PAL2	0	R1121M
2590.52	4.0	849313	STUDY_PAIR	n/a	wordpools/wordpool_EN.txt	CROWN	SOCK	1	5	SOCK	n/a	0	10	[0, 0, 0]	n/a	0	1	0	n/a	n/a	0.0	0	0	0	PAL2	0	R1121M
2595.539	0.25	851822	STUDY_ORIENT	n/a	n/a	CORD	SUN	2	2	CORD	n/a	0	10	[0, 0, 0]	n/a	0	1	0	n/a	n/a	0.0	0	0	0	PAL2	0	R1121M
2596.572	4.0	852339	STUDY_PAIR	n/a	wordpools/wordpool_EN.txt	CORD	SUN	2	2	CORD	n/a	0	10	[0, 0, 0]	n/a	0	1	0	n/a	n/a	0.0	0	0	0	PAL2	0	R1121M
2601.59	0.25	854848	STUDY_ORIENT	n/a	n/a	BENCH	MOUTH	3	3	MOUTH	n/a	0	10	[0, 0, 0]	n/a	0	1	0	n/a	n/a	0.0	0	0	0	PAL2	0	R1121M
2602.506	4.0	855306	STUDY_PAIR	n/a	wordpools/wordpool_EN.txt	BENCH	MOUTH	3	3	MOUTH	n/a	0	10	[0, 0, 0]	n/a	0	1	0	n/a	n/a	0.0	0	0	0	PAL2	0	R1121M
2607.541	0.25	857823	STUDY_ORIENT	n/a	n/a	TOAST	SPARK	4	6	TOAST	n/a	0	10	[0, 0, 0]	n/a	0	1	0	n/a	n/a	0.0	0	0	0	PAL2	0	R1121M
2608.541	4.0	858323	STUDY_PAIR	n/a	wordpools/wordpool_EN.txt	TOAST	SPARK	4	6	TOAST	n/a	0	10	[0, 0, 0]	n/a	0	1	0	n/a	n/a	0.0	0	0	0	PAL2	0	R1121M
2613.559	0.25	860832	STUDY_ORIENT	n/a	n/a	TANK	SPONGE	5	1	TANK	n/a	0	10	[0, 0, 0]	n/a	0	1	0	n/a	n/a	0.0	0	0	0	PAL2	0	R1121M
2614.526	4.0	861315	STUDY_PAIR	n/a	wordpools/wordpool_EN.txt	TANK	SPONGE	5	1	TANK	n/a	0	10	[0, 0, 0]	n/a	0	1	0	n/a	n/a	0.0	0	0	0	PAL2	0	R1121M
2619.56	0.25	863832	STUDY_ORIENT	n/a	n/a	FOG	CUBE	6	4	CUBE	n/a	0	10	[0, 0, 0]	n/a	0	1	0	n/a	n/a	0.0	0	0	0	PAL2	0	R1121M
2620.343	4.0	864223	STUDY_PAIR	n/a	wordpools/wordpool_EN.txt	FOG	CUBE	6	4	CUBE	n/a	0	10	[0, 0, 0]	n/a	0	1	0	n/a	n/a	0.0	0	0	0	PAL2	0	R1121M
2624.361	0.999	866232	START	n/a	n/a	n/a	n/a	-999	-999	n/a	n/a	-999	11	[-999, -999, -999]	n/a	0	1	0	n/a	n/a	0.0	0	0	0	PAL2	0	R1121M
2625.36	0.017	866732	MATH_START	n/a	n/a	n/a	n/a	-999	-999	n/a	n/a	-999	10	[0, 0, 0]	n/a	0	1	0	n/a	n/a	0.0	0	0	0	PAL2	0	R1121M
2625.377	5.551	866740	PROB	5.528	n/a	n/a	n/a	-999	-999	n/a	n/a	-999	11	[2, 5, 1]	8	0	1	0	n/a	n/a	0.0	0	0	0	PAL2	0	R1121M
2630.928	4.868	869515	PROB	4.849	n/a	n/a	n/a	-999	-999	n/a	n/a	-999	11	[1, 3, 2]	6	0	1	0	n/a	n/a	0.0	0	0	0	PAL2	0	R1121M
2635.796	7.753	871949	PROB	7.717	n/a	n/a	n/a	-999	-999	n/a	n/a	-999	11	[7, 9, 4]	20	0	1	0	n/a	n/a	0.0	0	0	0	PAL2	0	R1121M
2643.549	5.196	875825	PROB	5.196	n/a	n/a	n/a	-999	-999	n/a	n/a	-999	11	[8, 7, 7]	21	0	1	0	n/a	n/a	0.0	0	0	0	PAL2	0	R1121M
2648.745	0.003	878423	STOP	n/a	n/a	n/a	n/a	-999	-999	n/a	n/a	-999	11	[-999, -999, -999]	n/a	0	1	0	n/a	n/a	0.0	0	0	0	PAL2	0	R1121M
2648.748	0.0	878425	MATH_END	n/a	n/a	n/a	n/a	-999	-999	n/a	n/a	-999	10	[0, 0, 0]	n/a	0	1	0	n/a	n/a	0.0	0	0	0	PAL2	0	R1121M
2648.748	0.017	878425	TEST_START	n/a	n/a	n/a	n/a	-999	-999	n/a	n/a	-999	10	[0, 0, 0]	n/a	0	1	0	n/a	n/a	0.0	0	0	0	PAL2	0	R1121M
2648.765	0.25	878433	TEST_ORIENT	n/a	n/a	TANK	SPONGE	5	1	TANK	n/a	0	10	[0, 0, 0]	n/a	0	1	0	n/a	n/a	0.0	0	0	0	PAL2	0	R1121M
2649.445	4.6	878773	STIM_ON	n/a	n/a	TANK	SPONGE	5	1	TANK	n/a	0	10	[0, 0, 0]	n/a	1	1	4600	RFG1	RFG2	2000.0	50	230	300	PAL2	0	R1121M
2649.649	4.0	878875	TEST_PROBE	n/a	wordpools/wordpool_EN.txt	TANK	SPONGE	5	1	TANK	n/a	0	10	[0, 0, 0]	n/a	1	1	4600	RFG1	RFG2	2000.0	50	230	300	PAL2	0	R1121M
2649.649	0.732	878875	REC_START	n/a	n/a	n/a	n/a	5	-999	n/a	n/a	0	10	[0, 0, 0]	n/a	1	1	4600	RFG1	RFG2	2000.0	50	230	300	PAL2	0	R1121M
2650.381	4.285	879241	REC_EVENT	0.732	n/a	TANK	SPONGE	5	1	TANK	<>	0	10	[0, 0, 0]	n/a	1	1	4600	RFG1	RFG2	2000.0	50	230	300	PAL2	0	R1121M
2654.666	0.017	881384	REC_END	n/a	n/a	n/a	n/a	5	-999	n/a	n/a	-999	10	[0, 0, 0]	n/a	0	1	0	n/a	n/a	0.0	0	0	0	PAL2	0	R1121M
2654.683	0.25	881392	TEST_ORIENT	n/a	n/a	CORD	SUN	2	2	CORD	n/a	0	10	[0, 0, 0]	n/a	0	1	0	n/a	n/a	0.0	0	0	0	PAL2	0	R1121M
2655.717	0.0	881909	REC_START	n/a	n/a	n/a	n/a	2	-999	n/a	n/a	0	10	[0, 0, 0]	n/a	0	1	0	n/a	n/a	0.0	0	0	0	PAL2	0	R1121M
2655.717	4.0	881909	TEST_PROBE	n/a	wordpools/wordpool_EN.txt	CORD	SUN	2	2	CORD	n/a	0	10	[0, 0, 0]	n/a	0	1	0	n/a	n/a	0.0	0	0	0	PAL2	0	R1121M
2658.682	2.052	883391	REC_EVENT	2.965	n/a	CORD	SUN	2	2	CORD	<>	0	10	[0, 0, 0]	n/a	0	1	0	n/a	n/a	0.0	0	0	0	PAL2	0	R1121M
2660.734	0.017	884417	REC_END	n/a	n/a	n/a	n/a	2	-999	n/a	n/a	-999	10	[0, 0, 0]	n/a	0	1	0	n/a	n/a	0.0	0	0	0	PAL2	0	R1121M
2660.751	0.25	884426	TEST_ORIENT	n/a	n/a	BENCH	MOUTH	3	3	MOUTH	n/a	0	10	[0, 0, 0]	n/a	0	1	0	n/a	n/a	0.0	0	0	0	PAL2	0	R1121M
2661.437	4.6	884769	STIM_ON	n/a	n/a	BENCH	MOUTH	3	3	MOUTH	n/a	0	10	[0, 0, 0]	n/a	1	1	4600	RFG1	RFG2	2000.0	50	230	300	PAL2	0	R1121M
2661.651	4.0	884876	TEST_PROBE	n/a	wordpools/wordpool_EN.txt	BENCH	MOUTH	3	3	MOUTH	n/a	0	10	[0, 0, 0]	n/a	1	1	4600	RFG1	RFG2	2000.0	50	230	300	PAL2	0	R1121M
2661.652	4.515	884876	REC_START	n/a	n/a	n/a	n/a	3	-999	n/a	n/a	0	10	[0, 0, 0]	n/a	1	1	4600	RFG1	RFG2	2000.0	50	230	300	PAL2	0	R1121M
2666.167	0.501	887134	REC_EVENT	4.515	n/a	BENCH	MOUTH	3	3	MOUTH	<>	0	10	[0, 0, 0]	n/a	0	1	0	n/a	n/a	0.0	0	0	0	PAL2	0	R1121M
2666.668	0.017	887384	REC_END	n/a	n/a	n/a	n/a	3	-999	n/a	n/a	-999	10	[0, 0, 0]	n/a	0	1	0	n/a	n/a	0.0	0	0	0	PAL2	0	R1121M
2666.685	0.25	887393	TEST_ORIENT	n/a	n/a	FOG	CUBE	6	4	CUBE	n/a	0	10	[0, 0, 0]	n/a	0	1	0	n/a	n/a	0.0	0	0	0	PAL2	0	R1121M
2667.502	4.0	887801	TEST_PROBE	n/a	wordpools/wordpool_EN.txt	FOG	CUBE	6	4	CUBE	n/a	0	10	[0, 0, 0]	n/a	0	1	0	n/a	n/a	0.0	0	0	0	PAL2	0	R1121M
2667.503	4.498	887802	REC_START	n/a	n/a	n/a	n/a	6	-999	n/a	n/a	0	10	[0, 0, 0]	n/a	0	1	0	n/a	n/a	0.0	0	0	0	PAL2	0	R1121M
2672.001	0.502	890050	REC_EVENT	4.498	n/a	FOG	CUBE	6	4	CUBE	<>	0	10	[0, 0, 0]	n/a	0	1	0	n/a	n/a	0.0	0	0	0	PAL2	0	R1121M
2672.503	0.017	890301	REC_END	n/a	n/a	n/a	n/a	6	-999	n/a	n/a	-999	10	[0, 0, 0]	n/a	0	1	0	n/a	n/a	0.0	0	0	0	PAL2	0	R1121M
2672.52	0.25	890310	TEST_ORIENT	n/a	n/a	CROWN	SOCK	1	5	SOCK	n/a	0	10	[0, 0, 0]	n/a	0	1	0	n/a	n/a	0.0	0	0	0	PAL2	0	R1121M
2673.286	4.6	890693	STIM_ON	n/a	n/a	CROWN	SOCK	1	5	SOCK	n/a	0	10	[0, 0, 0]	n/a	1	1	4600	RFG1	RFG2	2000.0	50	230	300	PAL2	0	R1121M
2673.487	4.0	890793	TEST_PROBE	n/a	wordpools/wordpool_EN.txt	CROWN	SOCK	1	5	SOCK	n/a	0	10	[0, 0, 0]	n/a	1	1	4600	RFG1	RFG2	2000.0	50	230	300	PAL2	0	R1121M
2673.487	0.952	890793	REC_START	n/a	n/a	n/a	n/a	1	-999	n/a	n/a	0	10	[0, 0, 0]	n/a	1	1	4600	RFG1	RFG2	2000.0	50	230	300	PAL2	0	R1121M
2674.439	4.065	891269	REC_EVENT	0.952	n/a	CROWN	SOCK	1	5	SOCK	<>	0	10	[0, 0, 0]	n/a	1	1	4600	RFG1	RFG2	2000.0	50	230	300	PAL2	0	R1121M
2678.504	0.017	893302	REC_END	n/a	n/a	n/a	n/a	1	-999	n/a	n/a	-999	10	[0, 0, 0]	n/a	0	1	0	n/a	n/a	0.0	0	0	0	PAL2	0	R1121M
2678.521	0.25	893310	TEST_ORIENT	n/a	n/a	TOAST	SPARK	4	6	TOAST	n/a	0	10	[0, 0, 0]	n/a	0	1	0	n/a	n/a	0.0	0	0	0	PAL2	0	R1121M
2679.556	4.0	893828	TEST_PROBE	n/a	wordpools/wordpool_EN.txt	TOAST	SPARK	4	6	TOAST	n/a	0	10	[0, 0, 0]	n/a	0	1	0	n/a	n/a	0.0	0	0	0	PAL2	0	R1121M
2679.556	4.515	893828	REC_START	n/a	n/a	n/a	n/a	4	-999	n/a	n/a	0	10	[0, 0, 0]	n/a	0	1	0	n/a	n/a	0.0	0	0	0	PAL2	0	R1121M
2684.071	0.502	896085	REC_EVENT	4.515	n/a	TOAST	SPARK	4	6	TOAST	<>	0	10	[0, 0, 0]	n/a	0	1	0	n/a	n/a	0.0	0	0	0	PAL2	0	R1121M
2684.573	2.356	896336	REC_END	n/a	n/a	n/a	n/a	4	-999	n/a	n/a	-999	10	[0, 0, 0]	n/a	0	1	0	n/a	n/a	0.0	0	0	0	PAL2	0	R1121M
2686.929	10.446	897514	ENCODING_START	n/a	n/a	n/a	n/a	0	-999	n/a	n/a	-999	11	[0, 0, 0]	n/a	0	1	0	n/a	n/a	0.0	0	0	0	PAL2	0	R1121M
2697.375	0.25	902736	STUDY_ORIENT	n/a	n/a	GRASS	SHOE	1	1	GRASS	SHOE	1	11	[0, 0, 0]	n/a	0	1	0	n/a	n/a	0.0	0	0	0	PAL2	0	R1121M
2698.308	4.0	903203	STUDY_PAIR	n/a	wordpools/wordpool_EN.txt	GRASS	SHOE	1	1	GRASS	SHOE	1	11	[0, 0, 0]	n/a	0	1	0	n/a	n/a	0.0	0	0	0	PAL2	0	R1121M
2703.326	0.25	905712	STUDY_ORIENT	n/a	n/a	RUG	TOE	2	4	TOE	n/a	0	11	[0, 0, 0]	n/a	0	1	0	n/a	n/a	0.0	0	0	0	PAL2	0	R1121M
2704.243	4.0	906170	STUDY_PAIR	n/a	wordpools/wordpool_EN.txt	RUG	TOE	2	4	TOE	n/a	0	11	[0, 0, 0]	n/a	0	1	0	n/a	n/a	0.0	0	0	0	PAL2	0	R1121M
2709.277	0.25	908687	STUDY_ORIENT	n/a	n/a	MOTH	BREAD	3	5	MOTH	n/a	0	11	[0, 0, 0]	n/a	0	1	0	n/a	n/a	0.0	0	0	0	PAL2	0	R1121M
2710.244	4.0	909170	STUDY_PAIR	n/a	wordpools/wordpool_EN.txt	MOTH	BREAD	3	5	MOTH	n/a	0	11	[0, 0, 0]	n/a	0	1	0	n/a	n/a	0.0	0	0	0	PAL2	0	R1121M
2715.262	0.25	911679	STUDY_ORIENT	n/a	n/a	CANE	MAP	4	2	MAP	n/a	0	11	[0, 0, 0]	n/a	0	1	0	n/a	n/a	0.0	0	0	0	PAL2	0	R1121M
2716.095	4.0	912096	STUDY_PAIR	n/a	wordpools/wordpool_EN.txt	CANE	MAP	4	2	MAP	n/a	0	11	[0, 0, 0]	n/a	0	1	0	n/a	n/a	0.0	0	0	0	PAL2	0	R1121M
2721.113	0.25	914604	STUDY_ORIENT	n/a	n/a	HEN	SPRING	5	3	HEN	n/a	0	11	[0, 0, 0]	n/a	0	1	0	n/a	n/a	0.0	0	0	0	PAL2	0	R1121M
2721.913	4.0	915004	STUDY_PAIR	n/a	wordpools/wordpool_EN.txt	HEN	SPRING	5	3	HEN	n/a	0	11	[0, 0, 0]	n/a	0	1	0	n/a	n/a	0.0	0	0	0	PAL2	0	R1121M
2726.931	0.25	917513	STUDY_ORIENT	n/a	n/a	JAR	VEST	6	6	VEST	n/a	0	11	[0, 0, 0]	n/a	0	1	0	n/a	n/a	0.0	0	0	0	PAL2	0	R1121M
2727.931	4.0	918013	STUDY_PAIR	n/a	wordpools/wordpool_EN.txt	JAR	VEST	6	6	VEST	n/a	0	11	[0, 0, 0]	n/a	0	1	0	n/a	n/a	0.0	0	0	0	PAL2	0	R1121M
2731.95	0.999	920022	START	n/a	n/a	n/a	n/a	-999	-999	n/a	n/a	-999	12	[-999, -999, -999]	n/a	0	0	0	n/a	n/a	0.0	0	0	0	PAL2	0	R1121M
2732.949	0.016	920522	MATH_START	n/a	n/a	n/a	n/a	-999	-999	n/a	n/a	-999	11	[0, 0, 0]	n/a	0	1	0	n/a	n/a	0.0	0	0	0	PAL2	0	R1121M
2732.965	4.201	920530	PROB	4.172	n/a	n/a	n/a	-999	-999	n/a	n/a	-999	12	[4, 1, 1]	5	0	0	0	n/a	n/a	0.0	0	0	0	PAL2	0	R1121M
2737.166	6.735	922630	PROB	6.707	n/a	n/a	n/a	-999	-999	n/a	n/a	-999	12	[2, 5, 8]	15	0	0	0	n/a	n/a	0.0	0	0	0	PAL2	0	R1121M
2743.901	6.951	925997	PROB	6.924	n/a	n/a	n/a	-999	-999	n/a	n/a	-999	12	[2, 2, 5]	9	0	0	0	n/a	n/a	0.0	0	0	0	PAL2	0	R1121M
2750.852	8.541	929473	PROB	8.541	n/a	n/a	n/a	-999	-999	n/a	n/a	-999	12	[6, 3, 4]	13	0	0	0	n/a	n/a	0.0	0	0	0	PAL2	0	R1121M
2759.393	0.011	933743	STOP	n/a	n/a	n/a	n/a	-999	-999	n/a	n/a	-999	12	[-999, -999, -999]	n/a	0	0	0	n/a	n/a	0.0	0	0	0	PAL2	0	R1121M
2759.404	0.0	933748	MATH_END	n/a	n/a	n/a	n/a	-999	-999	n/a	n/a	-999	11	[0, 0, 0]	n/a	0	1	0	n/a	n/a	0.0	0	0	0	PAL2	0	R1121M
2759.404	0.017	933748	TEST_START	n/a	n/a	n/a	n/a	-999	-999	n/a	n/a	-999	11	[0, 0, 0]	n/a	0	1	0	n/a	n/a	0.0	0	0	0	PAL2	0	R1121M
2759.421	0.25	933757	TEST_ORIENT	n/a	n/a	GRASS	SHOE	1	1	GRASS	SHOE	1	11	[0, 0, 0]	n/a	0	1	0	n/a	n/a	0.0	0	0	0	PAL2	0	R1121M
2760.337	4.0	934215	TEST_PROBE	n/a	wordpools/wordpool_EN.txt	GRASS	SHOE	1	1	GRASS	SHOE	1	11	[0, 0, 0]	n/a	0	1	0	n/a	n/a	0.0	0	0	0	PAL2	0	R1121M
2760.339	1.476	934216	REC_START	n/a	n/a	n/a	n/a	1	-999	n/a	SHOE	1	11	[0, 0, 0]	n/a	0	1	0	n/a	n/a	0.0	0	0	0	PAL2	0	R1121M
2761.815	3.523	934954	REC_EVENT	1.476	n/a	GRASS	SHOE	1	1	GRASS	SHOE	1	11	[0, 0, 0]	n/a	0	1	0	n/a	n/a	0.0	0	0	0	PAL2	0	R1121M
2765.338	0.017	936715	REC_END	n/a	n/a	n/a	n/a	1	-999	n/a	n/a	-999	11	[0, 0, 0]	n/a	0	1	0	n/a	n/a	0.0	0	0	0	PAL2	0	R1121M
2765.355	0.25	936724	TEST_ORIENT	n/a	n/a	CANE	MAP	4	2	MAP	n/a	0	11	[0, 0, 0]	n/a	0	1	0	n/a	n/a	0.0	0	0	0	PAL2	0	R1121M
2765.948	4.6	937020	STIM_ON	n/a	n/a	CANE	MAP	4	2	MAP	n/a	0	11	[0, 0, 0]	n/a	1	1	4600	RFG1	RFG2	2000.0	50	230	300	PAL2	0	R1121M
2766.155	4.0	937124	TEST_PROBE	n/a	wordpools/wordpool_EN.txt	CANE	MAP	4	2	MAP	n/a	0	11	[0, 0, 0]	n/a	1	1	4600	RFG1	RFG2	2000.0	50	230	300	PAL2	0	R1121M
2766.156	3.506	937124	REC_START	n/a	n/a	n/a	n/a	4	-999	n/a	n/a	0	11	[0, 0, 0]	n/a	1	1	4600	RFG1	RFG2	2000.0	50	230	300	PAL2	0	R1121M
2769.662	1.502	938877	REC_EVENT	3.506	n/a	CANE	MAP	4	2	MAP	<>	0	11	[0, 0, 0]	n/a	1	1	4600	RFG1	RFG2	2000.0	50	230	300	PAL2	0	R1121M
2771.164	0.009	939628	REC_END	n/a	n/a	n/a	n/a	4	-999	n/a	n/a	-999	11	[0, 0, 0]	n/a	0	1	0	n/a	n/a	0.0	0	0	0	PAL2	0	R1121M
2771.173	0.25	939632	TEST_ORIENT	n/a	n/a	HEN	SPRING	5	3	HEN	n/a	0	11	[0, 0, 0]	n/a	0	1	0	n/a	n/a	0.0	0	0	0	PAL2	0	R1121M
2772.14	4.0	940116	TEST_PROBE	n/a	wordpools/wordpool_EN.txt	HEN	SPRING	5	3	HEN	n/a	0	11	[0, 0, 0]	n/a	0	1	0	n/a	n/a	0.0	0	0	0	PAL2	0	R1121M
2772.14	4.515	940116	REC_START	n/a	n/a	n/a	n/a	5	-999	n/a	n/a	0	11	[0, 0, 0]	n/a	0	1	0	n/a	n/a	0.0	0	0	0	PAL2	0	R1121M
2776.655	0.502	942373	REC_EVENT	4.515	n/a	HEN	SPRING	5	3	HEN	<>	0	11	[0, 0, 0]	n/a	0	1	0	n/a	n/a	0.0	0	0	0	PAL2	0	R1121M
2777.157	0.051	942624	REC_END	n/a	n/a	n/a	n/a	5	-999	n/a	n/a	-999	11	[0, 0, 0]	n/a	0	1	0	n/a	n/a	0.0	0	0	0	PAL2	0	R1121M
2777.208	0.25	942650	TEST_ORIENT	n/a	n/a	RUG	TOE	2	4	TOE	n/a	0	11	[0, 0, 0]	n/a	0	1	0	n/a	n/a	0.0	0	0	0	PAL2	0	R1121M
2778.042	4.6	943067	STIM_ON	n/a	n/a	RUG	TOE	2	4	TOE	n/a	0	11	[0, 0, 0]	n/a	1	1	4600	RFG1	RFG2	2000.0	50	230	300	PAL2	0	R1121M
2778.258	4.0	943175	TEST_PROBE	n/a	wordpools/wordpool_EN.txt	RUG	TOE	2	4	TOE	n/a	0	11	[0, 0, 0]	n/a	1	1	4600	RFG1	RFG2	2000.0	50	230	300	PAL2	0	R1121M
2778.259	4.521	943175	REC_START	n/a	n/a	n/a	n/a	2	-999	n/a	n/a	0	11	[0, 0, 0]	n/a	1	1	4600	RFG1	RFG2	2000.0	50	230	300	PAL2	0	R1121M
2782.78	0.503	945435	REC_EVENT	4.521	n/a	RUG	TOE	2	4	TOE	<>	0	11	[0, 0, 0]	n/a	0	1	0	n/a	n/a	0.0	0	0	0	PAL2	0	R1121M
2783.283	0.009	945687	REC_END	n/a	n/a	n/a	n/a	2	-999	n/a	n/a	-999	11	[0, 0, 0]	n/a	0	1	0	n/a	n/a	0.0	0	0	0	PAL2	0	R1121M
2783.292	0.25	945691	TEST_ORIENT	n/a	n/a	MOTH	BREAD	3	5	MOTH	n/a	0	11	[0, 0, 0]	n/a	0	1	0	n/a	n/a	0.0	0	0	0	PAL2	0	R1121M
2784.209	4.0	946150	TEST_PROBE	n/a	wordpools/wordpool_EN.txt	MOTH	BREAD	3	5	MOTH	n/a	0	11	[0, 0, 0]	n/a	0	1	0	n/a	n/a	0.0	0	0	0	PAL2	0	R1121M
2784.209	4.532	946150	REC_START	n/a	n/a	n/a	n/a	3	-999	n/a	n/a	0	11	[0, 0, 0]	n/a	0	1	0	n/a	n/a	0.0	0	0	0	PAL2	0	R1121M
2788.741	0.502	948416	REC_EVENT	4.532	n/a	MOTH	BREAD	3	5	MOTH	<>	0	11	[0, 0, 0]	n/a	0	1	0	n/a	n/a	0.0	0	0	0	PAL2	0	R1121M
2789.243	0.034	948667	REC_END	n/a	n/a	n/a	n/a	3	-999	n/a	n/a	-999	11	[0, 0, 0]	n/a	0	1	0	n/a	n/a	0.0	0	0	0	PAL2	0	R1121M
2789.277	0.25	948684	TEST_ORIENT	n/a	n/a	JAR	VEST	6	6	VEST	n/a	0	11	[0, 0, 0]	n/a	0	1	0	n/a	n/a	0.0	0	0	0	PAL2	0	R1121M
2790.061	4.6	949076	STIM_ON	n/a	n/a	JAR	VEST	6	6	VEST	n/a	0	11	[0, 0, 0]	n/a	1	1	4600	RFG1	RFG2	2000.0	50	230	300	PAL2	0	R1121M
2790.277	4.0	949184	TEST_PROBE	n/a	wordpools/wordpool_EN.txt	JAR	VEST	6	6	VEST	n/a	0	11	[0, 0, 0]	n/a	1	1	4600	RFG1	RFG2	2000.0	50	230	300	PAL2	0	R1121M
2790.278	4.527	949184	REC_START	n/a	n/a	n/a	n/a	6	-999	n/a	n/a	0	11	[0, 0, 0]	n/a	1	1	4600	RFG1	RFG2	2000.0	50	230	300	PAL2	0	R1121M
2794.805	0.497	951447	REC_EVENT	4.527	n/a	JAR	VEST	6	6	VEST	<>	0	11	[0, 0, 0]	n/a	0	1	0	n/a	n/a	0.0	0	0	0	PAL2	0	R1121M
2795.302	2.363	951696	REC_END	n/a	n/a	n/a	n/a	6	-999	n/a	n/a	-999	11	[0, 0, 0]	n/a	0	1	0	n/a	n/a	0.0	0	0	0	PAL2	0	R1121M
2797.665	10.448	952877	ENCODING_START	n/a	n/a	n/a	n/a	0	-999	n/a	n/a	-999	12	[0, 0, 0]	n/a	0	0	0	n/a	n/a	0.0	0	0	0	PAL2	0	R1121M
2808.113	0.25	958101	STUDY_ORIENT	n/a	n/a	SNOW	VASE	1	5	VASE	SNOW	1	12	[0, 0, 0]	n/a	0	0	0	n/a	n/a	0.0	0	0	0	PAL2	0	R1121M
2809.047	4.0	958568	STUDY_PAIR	n/a	wordpools/wordpool_EN.txt	SNOW	VASE	1	5	VASE	SNOW	1	12	[0, 0, 0]	n/a	0	0	0	n/a	n/a	0.0	0	0	0	PAL2	0	R1121M
2814.081	0.25	961085	STUDY_ORIENT	n/a	n/a	LAKE	HORN	2	2	LAKE	HORN	1	12	[0, 0, 0]	n/a	0	0	0	n/a	n/a	0.0	0	0	0	PAL2	0	R1121M
2814.998	4.0	961543	STUDY_PAIR	n/a	wordpools/wordpool_EN.txt	LAKE	HORN	2	2	LAKE	HORN	1	12	[0, 0, 0]	n/a	0	0	0	n/a	n/a	0.0	0	0	0	PAL2	0	R1121M
2820.016	0.25	964052	STUDY_ORIENT	n/a	n/a	SMILE	RICE	3	3	SMILE	n/a	0	12	[0, 0, 0]	n/a	0	0	0	n/a	n/a	0.0	0	0	0	PAL2	0	R1121M
2820.816	4.0	964452	STUDY_PAIR	n/a	wordpools/wordpool_EN.txt	SMILE	RICE	3	3	SMILE	n/a	0	12	[0, 0, 0]	n/a	0	0	0	n/a	n/a	0.0	0	0	0	PAL2	0	R1121M
2825.851	0.25	966969	STUDY_ORIENT	n/a	n/a	COUCH	WORM	4	4	WORM	n/a	0	12	[0, 0, 0]	n/a	0	0	0	n/a	n/a	0.0	0	0	0	PAL2	0	R1121M
2826.767	4.0	967427	STUDY_PAIR	n/a	wordpools/wordpool_EN.txt	COUCH	WORM	4	4	WORM	n/a	0	12	[0, 0, 0]	n/a	0	0	0	n/a	n/a	0.0	0	0	0	PAL2	0	R1121M
2831.802	0.25	969944	STUDY_ORIENT	n/a	n/a	FORK	PIT	5	1	FORK	n/a	0	12	[0, 0, 0]	n/a	0	0	0	n/a	n/a	0.0	0	0	0	PAL2	0	R1121M
2832.685	4.0	970386	STUDY_PAIR	n/a	wordpools/wordpool_EN.txt	FORK	PIT	5	1	FORK	n/a	0	12	[0, 0, 0]	n/a	0	0	0	n/a	n/a	0.0	0	0	0	PAL2	0	R1121M
2837.719	0.25	972903	STUDY_ORIENT	n/a	n/a	MOOSE	BAT	6	6	MOOSE	RAT	0	12	[0, 0, 0]	n/a	0	0	0	n/a	n/a	0.0	0	0	0	PAL2	0	R1121M
2838.72	4.0	973403	STUDY_PAIR	n/a	wordpools/wordpool_EN.txt	MOOSE	BAT	6	6	MOOSE	RAT	0	12	[0, 0, 0]	n/a	0	0	0	n/a	n/a	0.0	0	0	0	PAL2	0	R1121M
2842.739	0.998	975413	START	n/a	n/a	n/a	n/a	-999	-999	n/a	n/a	-999	13	[-999, -999, -999]	n/a	0	1	0	n/a	n/a	0.0	0	0	0	PAL2	0	R1121M
2843.737	0.017	975911	MATH_START	n/a	n/a	n/a	n/a	-999	-999	n/a	n/a	-999	12	[0, 0, 0]	n/a	0	0	0	n/a	n/a	0.0	0	0	0	PAL2	0	R1121M
2843.754	5.484	975920	PROB	5.455	n/a	n/a	n/a	-999	-999	n/a	n/a	-999	13	[3, 1, 9]	13	0	1	0	n/a	n/a	0.0	0	0	0	PAL2	0	R1121M
2849.238	6.101	978662	PROB	6.075	n/a	n/a	n/a	-999	-999	n/a	n/a	-999	13	[4, 3, 1]	8	0	1	0	n/a	n/a	0.0	0	0	0	PAL2	0	R1121M
2855.339	8.902	981712	PROB	8.902	n/a	n/a	n/a	-999	-999	n/a	n/a	-999	13	[5, 7, 3]	15	0	1	0	n/a	n/a	0.0	0	0	0	PAL2	0	R1121M
2864.241	0.017	986163	STOP	n/a	n/a	n/a	n/a	-999	-999	n/a	n/a	-999	13	[-999, -999, -999]	n/a	0	1	0	n/a	n/a	0.0	0	0	0	PAL2	0	R1121M
2864.258	0.0	986171	MATH_END	n/a	n/a	n/a	n/a	-999	-999	n/a	n/a	-999	12	[0, 0, 0]	n/a	0	0	0	n/a	n/a	0.0	0	0	0	PAL2	0	R1121M
2864.258	0.017	986171	TEST_START	n/a	n/a	n/a	n/a	-999	-999	n/a	n/a	-999	12	[0, 0, 0]	n/a	0	0	0	n/a	n/a	0.0	0	0	0	PAL2	0	R1121M
2864.275	0.25	986180	TEST_ORIENT	n/a	n/a	FORK	PIT	5	1	FORK	n/a	0	12	[0, 0, 0]	n/a	0	0	0	n/a	n/a	0.0	0	0	0	PAL2	0	R1121M
2865.092	4.0	986588	TEST_PROBE	n/a	wordpools/wordpool_EN.txt	FORK	PIT	5	1	FORK	n/a	0	12	[0, 0, 0]	n/a	0	0	0	n/a	n/a	0.0	0	0	0	PAL2	0	R1121M
2865.093	1.544	986589	REC_START	n/a	n/a	n/a	n/a	5	-999	n/a	n/a	0	12	[0, 0, 0]	n/a	0	0	0	n/a	n/a	0.0	0	0	0	PAL2	0	R1121M
2866.637	3.502	987361	REC_EVENT	1.544	n/a	FORK	PIT	5	1	FORK	<>	0	12	[0, 0, 0]	n/a	0	0	0	n/a	n/a	0.0	0	0	0	PAL2	0	R1121M
2870.139	0.02	989111	REC_END	n/a	n/a	n/a	n/a	5	-999	n/a	n/a	-999	12	[0, 0, 0]	n/a	0	0	0	n/a	n/a	0.0	0	0	0	PAL2	0	R1121M
2870.159	0.25	989121	TEST_ORIENT	n/a	n/a	LAKE	HORN	2	2	LAKE	HORN	1	12	[0, 0, 0]	n/a	0	0	0	n/a	n/a	0.0	0	0	0	PAL2	0	R1121M
2871.093	4.0	989588	TEST_PROBE	n/a	wordpools/wordpool_EN.txt	LAKE	HORN	2	2	LAKE	HORN	1	12	[0, 0, 0]	n/a	0	0	0	n/a	n/a	0.0	0	0	0	PAL2	0	R1121M
2871.094	2.904	989589	REC_START	n/a	n/a	n/a	n/a	2	-999	n/a	HORN	1	12	[0, 0, 0]	n/a	0	0	0	n/a	n/a	0.0	0	0	0	PAL2	0	R1121M
2873.998	2.112	991041	REC_EVENT	2.904	n/a	LAKE	HORN	2	2	LAKE	HORN	1	12	[0, 0, 0]	n/a	0	0	0	n/a	n/a	0.0	0	0	0	PAL2	0	R1121M
2876.11	0.05	992097	REC_END	n/a	n/a	n/a	n/a	2	-999	n/a	n/a	-999	12	[0, 0, 0]	n/a	0	0	0	n/a	n/a	0.0	0	0	0	PAL2	0	R1121M
2876.16	0.25	992122	TEST_ORIENT	n/a	n/a	SMILE	RICE	3	3	SMILE	n/a	0	12	[0, 0, 0]	n/a	0	0	0	n/a	n/a	0.0	0	0	0	PAL2	0	R1121M
2877.027	4.0	992555	TEST_PROBE	n/a	wordpools/wordpool_EN.txt	SMILE	RICE	3	3	SMILE	n/a	0	12	[0, 0, 0]	n/a	0	0	0	n/a	n/a	0.0	0	0	0	PAL2	0	R1121M
2877.029	4.015	992556	REC_START	n/a	n/a	n/a	n/a	3	-999	n/a	n/a	0	12	[0, 0, 0]	n/a	0	0	0	n/a	n/a	0.0	0	0	0	PAL2	0	R1121M
2881.044	1.001	994564	REC_EVENT	4.015	n/a	SMILE	RICE	3	3	SMILE	<>	0	12	[0, 0, 0]	n/a	0	0	0	n/a	n/a	0.0	0	0	0	PAL2	0	R1121M
2882.045	0.05	995064	REC_END	n/a	n/a	n/a	n/a	3	-999	n/a	n/a	-999	12	[0, 0, 0]	n/a	0	0	0	n/a	n/a	0.0	0	0	0	PAL2	0	R1121M
2882.095	0.25	995089	TEST_ORIENT	n/a	n/a	COUCH	WORM	4	4	WORM	n/a	0	12	[0, 0, 0]	n/a	0	0	0	n/a	n/a	0.0	0	0	0	PAL2	0	R1121M
2883.095	4.0	995589	TEST_PROBE	n/a	wordpools/wordpool_EN.txt	COUCH	WORM	4	4	WORM	n/a	0	12	[0, 0, 0]	n/a	0	0	0	n/a	n/a	0.0	0	0	0	PAL2	0	R1121M
2883.097	4.509	995590	REC_START	n/a	n/a	n/a	n/a	4	-999	n/a	n/a	0	12	[0, 0, 0]	n/a	0	0	0	n/a	n/a	0.0	0	0	0	PAL2	0	R1121M
2887.606	0.507	997844	REC_EVENT	4.509	n/a	COUCH	WORM	4	4	WORM	<>	0	12	[0, 0, 0]	n/a	0	0	0	n/a	n/a	0.0	0	0	0	PAL2	0	R1121M
2888.113	0.05	998098	REC_END	n/a	n/a	n/a	n/a	4	-999	n/a	n/a	-999	12	[0, 0, 0]	n/a	0	0	0	n/a	n/a	0.0	0	0	0	PAL2	0	R1121M
2888.163	0.25	998123	TEST_ORIENT	n/a	n/a	SNOW	VASE	1	5	VASE	SNOW	1	12	[0, 0, 0]	n/a	0	0	0	n/a	n/a	0.0	0	0	0	PAL2	0	R1121M
2889.196	4.0	998639	TEST_PROBE	n/a	wordpools/wordpool_EN.txt	SNOW	VASE	1	5	VASE	SNOW	1	12	[0, 0, 0]	n/a	0	0	0	n/a	n/a	0.0	0	0	0	PAL2	0	R1121M
2889.198	1.539	998640	REC_START	n/a	n/a	n/a	n/a	1	-999	n/a	SNOW	1	12	[0, 0, 0]	n/a	0	0	0	n/a	n/a	0.0	0	0	0	PAL2	0	R1121M
2890.737	3.46	999410	REC_EVENT	1.539	n/a	SNOW	VASE	1	5	VASE	SNOW	1	12	[0, 0, 0]	n/a	0	0	0	n/a	n/a	0.0	0	0	0	PAL2	0	R1121M
2894.197	0.05	1001139	REC_END	n/a	n/a	n/a	n/a	1	-999	n/a	n/a	-999	12	[0, 0, 0]	n/a	0	0	0	n/a	n/a	0.0	0	0	0	PAL2	0	R1121M
2894.247	0.25	1001164	TEST_ORIENT	n/a	n/a	MOOSE	BAT	6	6	MOOSE	RAT	0	12	[0, 0, 0]	n/a	0	0	0	n/a	n/a	0.0	0	0	0	PAL2	0	R1121M
2895.131	4.0	1001606	TEST_PROBE	n/a	wordpools/wordpool_EN.txt	MOOSE	BAT	6	6	MOOSE	RAT	0	12	[0, 0, 0]	n/a	0	0	0	n/a	n/a	0.0	0	0	0	PAL2	0	R1121M
2895.132	2.868	1001607	REC_START	n/a	n/a	n/a	n/a	6	-999	n/a	RAT	0	12	[0, 0, 0]	n/a	0	0	0	n/a	n/a	0.0	0	0	0	PAL2	0	R1121M
2898.0	2.148	1003041	REC_EVENT	2.868	n/a	MOOSE	BAT	6	6	MOOSE	RAT	0	12	[0, 0, 0]	n/a	0	0	0	n/a	n/a	0.0	0	0	0	PAL2	0	R1121M
2900.148	11.957	1004115	REC_END	n/a	n/a	n/a	n/a	6	-999	n/a	n/a	-999	12	[0, 0, 0]	n/a	0	0	0	n/a	n/a	0.0	0	0	0	PAL2	0	R1121M
2912.105	10.449	1010093	ENCODING_START	n/a	n/a	n/a	n/a	0	-999	n/a	n/a	-999	13	[0, 0, 0]	n/a	0	1	0	n/a	n/a	0.0	0	0	0	PAL2	0	R1121M
2922.554	0.25	1015317	STUDY_ORIENT	n/a	n/a	BRANCH	LAWN	1	1	LAWN	n/a	0	13	[0, 0, 0]	n/a	0	1	0	n/a	n/a	0.0	0	0	0	PAL2	0	R1121M
2923.386	4.0	1015733	STUDY_PAIR	n/a	wordpools/wordpool_EN.txt	BRANCH	LAWN	1	1	LAWN	n/a	0	13	[0, 0, 0]	n/a	0	1	0	n/a	n/a	0.0	0	0	0	PAL2	0	R1121M
2928.404	0.25	1018242	STUDY_ORIENT	n/a	n/a	PLANE	CLOUD	2	6	PLANE	n/a	0	13	[0, 0, 0]	n/a	0	1	0	n/a	n/a	0.0	0	0	0	PAL2	0	R1121M
2929.141	4.6	1018610	STIM_ON	n/a	n/a	PLANE	CLOUD	2	6	PLANE	n/a	0	13	[0, 0, 0]	n/a	1	1	4600	RFG1	RFG2	2000.0	50	230	300	PAL2	0	R1121M
2929.354	4.0	1018717	STUDY_PAIR	n/a	wordpools/wordpool_EN.txt	PLANE	CLOUD	2	6	PLANE	n/a	0	13	[0, 0, 0]	n/a	1	1	4600	RFG1	RFG2	2000.0	50	230	300	PAL2	0	R1121M
2934.389	0.25	1021234	STUDY_ORIENT	n/a	n/a	INK	SHELL	3	5	INK	n/a	0	13	[0, 0, 0]	n/a	0	1	0	n/a	n/a	0.0	0	0	0	PAL2	0	R1121M
2935.305	4.0	1021692	STUDY_PAIR	n/a	wordpools/wordpool_EN.txt	INK	SHELL	3	5	INK	n/a	0	13	[0, 0, 0]	n/a	0	1	0	n/a	n/a	0.0	0	0	0	PAL2	0	R1121M
2940.323	0.25	1024201	STUDY_ORIENT	n/a	n/a	STEM	SNAKE	4	4	SNAKE	n/a	0	13	[0, 0, 0]	n/a	0	1	0	n/a	n/a	0.0	0	0	0	PAL2	0	R1121M
2941.05	4.6	1024564	STIM_ON	n/a	n/a	STEM	SNAKE	4	4	SNAKE	n/a	0	13	[0, 0, 0]	n/a	1	1	4600	RFG1	RFG2	2000.0	50	230	300	PAL2	0	R1121M
2941.256	4.0	1024667	STUDY_PAIR	n/a	wordpools/wordpool_EN.txt	STEM	SNAKE	4	4	SNAKE	n/a	0	13	[0, 0, 0]	n/a	1	1	4600	RFG1	RFG2	2000.0	50	230	300	PAL2	0	R1121M
2946.274	0.25	1027176	STUDY_ORIENT	n/a	n/a	LAMP	BATH	5	3	BATH	n/a	0	13	[0, 0, 0]	n/a	0	1	0	n/a	n/a	0.0	0	0	0	PAL2	0	R1121M
2947.108	4.0	1027593	STUDY_PAIR	n/a	wordpools/wordpool_EN.txt	LAMP	BATH	5	3	BATH	n/a	0	13	[0, 0, 0]	n/a	0	1	0	n/a	n/a	0.0	0	0	0	PAL2	0	R1121M
2952.142	0.25	1030110	STUDY_ORIENT	n/a	n/a	SPOON	FUDGE	6	2	FUDGE	SPOON	1	13	[0, 0, 0]	n/a	0	1	0	n/a	n/a	0.0	0	0	0	PAL2	0	R1121M
2952.776	4.6	1030427	STIM_ON	n/a	n/a	SPOON	FUDGE	6	2	FUDGE	SPOON	1	13	[0, 0, 0]	n/a	1	1	4600	RFG1	RFG2	2000.0	50	230	300	PAL2	0	R1121M
2952.992	4.0	1030535	STUDY_PAIR	n/a	wordpools/wordpool_EN.txt	SPOON	FUDGE	6	2	FUDGE	SPOON	1	13	[0, 0, 0]	n/a	1	1	4600	RFG1	RFG2	2000.0	50	230	300	PAL2	0	R1121M
2957.011	0.999	1032544	START	n/a	n/a	n/a	n/a	-999	-999	n/a	n/a	-999	14	[-999, -999, -999]	n/a	0	1	0	n/a	n/a	0.0	0	0	0	PAL2	0	R1121M
2958.01	0.016	1033043	MATH_START	n/a	n/a	n/a	n/a	-999	-999	n/a	n/a	-999	13	[0, 0, 0]	n/a	0	1	0	n/a	n/a	0.0	0	0	0	PAL2	0	R1121M
2958.026	7.536	1033051	PROB	7.512	n/a	n/a	n/a	-999	-999	n/a	n/a	-999	14	[4, 7, 9]	20	0	1	0	n/a	n/a	0.0	0	0	0	PAL2	0	R1121M
2965.562	5.417	1036819	PROB	5.391	n/a	n/a	n/a	-999	-999	n/a	n/a	-999	14	[1, 6, 6]	13	0	1	0	n/a	n/a	0.0	0	0	0	PAL2	0	R1121M
2970.979	6.086	1039527	PROB	6.086	n/a	n/a	n/a	-999	-999	n/a	n/a	-999	14	[8, 4, 6]	18	0	1	0	n/a	n/a	0.0	0	0	0	PAL2	0	R1121M
2977.065	0.015	1042570	STOP	n/a	n/a	n/a	n/a	-999	-999	n/a	n/a	-999	14	[-999, -999, -999]	n/a	0	1	0	n/a	n/a	0.0	0	0	0	PAL2	0	R1121M
2977.08	0.0	1042578	MATH_END	n/a	n/a	n/a	n/a	-999	-999	n/a	n/a	-999	13	[0, 0, 0]	n/a	0	1	0	n/a	n/a	0.0	0	0	0	PAL2	0	R1121M
2977.08	0.017	1042578	TEST_START	n/a	n/a	n/a	n/a	-999	-999	n/a	n/a	-999	13	[0, 0, 0]	n/a	0	1	0	n/a	n/a	0.0	0	0	0	PAL2	0	R1121M
2977.097	0.25	1042586	TEST_ORIENT	n/a	n/a	BRANCH	LAWN	1	1	LAWN	n/a	0	13	[0, 0, 0]	n/a	0	1	0	n/a	n/a	0.0	0	0	0	PAL2	0	R1121M
2978.114	4.0	1043095	TEST_PROBE	n/a	wordpools/wordpool_EN.txt	BRANCH	LAWN	1	1	LAWN	n/a	0	13	[0, 0, 0]	n/a	0	1	0	n/a	n/a	0.0	0	0	0	PAL2	0	R1121M
2978.115	4.545	1043095	REC_START	n/a	n/a	n/a	n/a	1	-999	n/a	n/a	0	13	[0, 0, 0]	n/a	0	1	0	n/a	n/a	0.0	0	0	0	PAL2	0	R1121M
2982.66	0.471	1045367	REC_EVENT	4.545	n/a	BRANCH	LAWN	1	1	LAWN	<>	0	13	[0, 0, 0]	n/a	0	1	0	n/a	n/a	0.0	0	0	0	PAL2	0	R1121M
2983.131	0.05	1045603	REC_END	n/a	n/a	n/a	n/a	1	-999	n/a	n/a	-999	13	[0, 0, 0]	n/a	0	1	0	n/a	n/a	0.0	0	0	0	PAL2	0	R1121M
2983.181	0.25	1045628	TEST_ORIENT	n/a	n/a	SPOON	FUDGE	6	2	FUDGE	SPOON	1	13	[0, 0, 0]	n/a	0	1	0	n/a	n/a	0.0	0	0	0	PAL2	0	R1121M
2984.031	4.0	1046053	TEST_PROBE	n/a	wordpools/wordpool_EN.txt	SPOON	FUDGE	6	2	FUDGE	SPOON	1	13	[0, 0, 0]	n/a	0	1	0	n/a	n/a	0.0	0	0	0	PAL2	0	R1121M
2984.033	1.319	1046054	REC_START	n/a	n/a	n/a	n/a	6	-999	n/a	SPOON	1	13	[0, 0, 0]	n/a	0	1	0	n/a	n/a	0.0	0	0	0	PAL2	0	R1121M
2985.352	3.68	1046713	REC_EVENT	1.319	n/a	SPOON	FUDGE	6	2	FUDGE	SPOON	1	13	[0, 0, 0]	n/a	0	1	0	n/a	n/a	0.0	0	0	0	PAL2	0	R1121M
2989.032	0.05	1048553	REC_END	n/a	n/a	n/a	n/a	6	-999	n/a	n/a	-999	13	[0, 0, 0]	n/a	0	1	0	n/a	n/a	0.0	0	0	0	PAL2	0	R1121M
2989.082	0.25	1048578	TEST_ORIENT	n/a	n/a	LAMP	BATH	5	3	BATH	n/a	0	13	[0, 0, 0]	n/a	0	1	0	n/a	n/a	0.0	0	0	0	PAL2	0	R1121M
2990.016	4.0	1049045	TEST_PROBE	n/a	wordpools/wordpool_EN.txt	LAMP	BATH	5	3	BATH	n/a	0	13	[0, 0, 0]	n/a	0	1	0	n/a	n/a	0.0	0	0	0	PAL2	0	R1121M
2990.017	4.56	1049046	REC_START	n/a	n/a	n/a	n/a	5	-999	n/a	n/a	0	13	[0, 0, 0]	n/a	0	1	0	n/a	n/a	0.0	0	0	0	PAL2	0	R1121M
2994.577	0.456	1051325	REC_EVENT	4.56	n/a	LAMP	BATH	5	3	BATH	<>	0	13	[0, 0, 0]	n/a	0	1	0	n/a	n/a	0.0	0	0	0	PAL2	0	R1121M
2995.033	0.051	1051553	REC_END	n/a	n/a	n/a	n/a	5	-999	n/a	n/a	-999	13	[0, 0, 0]	n/a	0	1	0	n/a	n/a	0.0	0	0	0	PAL2	0	R1121M
2995.084	0.25	1051579	TEST_ORIENT	n/a	n/a	STEM	SNAKE	4	4	SNAKE	n/a	0	13	[0, 0, 0]	n/a	0	1	0	n/a	n/a	0.0	0	0	0	PAL2	0	R1121M
2995.901	4.0	1051987	TEST_PROBE	n/a	wordpools/wordpool_EN.txt	STEM	SNAKE	4	4	SNAKE	n/a	0	13	[0, 0, 0]	n/a	0	1	0	n/a	n/a	0.0	0	0	0	PAL2	0	R1121M
2995.902	4.544	1051988	REC_START	n/a	n/a	n/a	n/a	4	-999	n/a	n/a	0	13	[0, 0, 0]	n/a	0	1	0	n/a	n/a	0.0	0	0	0	PAL2	0	R1121M
3000.446	0.503	1054260	REC_EVENT	4.544	n/a	STEM	SNAKE	4	4	SNAKE	<>	0	13	[0, 0, 0]	n/a	0	1	0	n/a	n/a	0.0	0	0	0	PAL2	0	R1121M
3000.949	0.019	1054511	REC_END	n/a	n/a	n/a	n/a	4	-999	n/a	n/a	-999	13	[0, 0, 0]	n/a	0	1	0	n/a	n/a	0.0	0	0	0	PAL2	0	R1121M
3000.968	0.25	1054521	TEST_ORIENT	n/a	n/a	INK	SHELL	3	5	INK	n/a	0	13	[0, 0, 0]	n/a	0	1	0	n/a	n/a	0.0	0	0	0	PAL2	0	R1121M
3001.852	4.0	1054963	TEST_PROBE	n/a	wordpools/wordpool_EN.txt	INK	SHELL	3	5	INK	n/a	0	13	[0, 0, 0]	n/a	0	1	0	n/a	n/a	0.0	0	0	0	PAL2	0	R1121M
3001.853	4.515	1054963	REC_START	n/a	n/a	n/a	n/a	3	-999	n/a	n/a	0	13	[0, 0, 0]	n/a	0	1	0	n/a	n/a	0.0	0	0	0	PAL2	0	R1121M
3006.368	0.501	1057221	REC_EVENT	4.515	n/a	INK	SHELL	3	5	INK	<>	0	13	[0, 0, 0]	n/a	0	1	0	n/a	n/a	0.0	0	0	0	PAL2	0	R1121M
3006.869	0.05	1057471	REC_END	n/a	n/a	n/a	n/a	3	-999	n/a	n/a	-999	13	[0, 0, 0]	n/a	0	1	0	n/a	n/a	0.0	0	0	0	PAL2	0	R1121M
3006.919	0.25	1057496	TEST_ORIENT	n/a	n/a	PLANE	CLOUD	2	6	PLANE	n/a	0	13	[0, 0, 0]	n/a	0	1	0	n/a	n/a	0.0	0	0	0	PAL2	0	R1121M
3007.72	4.0	1057896	TEST_PROBE	n/a	wordpools/wordpool_EN.txt	PLANE	CLOUD	2	6	PLANE	n/a	0	13	[0, 0, 0]	n/a	0	1	0	n/a	n/a	0.0	0	0	0	PAL2	0	R1121M
3007.721	4.544	1057897	REC_START	n/a	n/a	n/a	n/a	2	-999	n/a	n/a	0	13	[0, 0, 0]	n/a	0	1	0	n/a	n/a	0.0	0	0	0	PAL2	0	R1121M
3012.265	0.503	1060169	REC_EVENT	4.544	n/a	PLANE	CLOUD	2	6	PLANE	<>	0	13	[0, 0, 0]	n/a	0	1	0	n/a	n/a	0.0	0	0	0	PAL2	0	R1121M
3012.768	19.129	1060420	REC_END	n/a	n/a	n/a	n/a	2	-999	n/a	n/a	-999	13	[0, 0, 0]	n/a	0	1	0	n/a	n/a	0.0	0	0	0	PAL2	0	R1121M
3031.897	10.446	1069984	ENCODING_START	n/a	n/a	n/a	n/a	0	-999	n/a	n/a	-999	14	[0, 0, 0]	n/a	0	1	0	n/a	n/a	0.0	0	0	0	PAL2	0	R1121M
3042.343	0.25	1075207	STUDY_ORIENT	n/a	n/a	DOG	HOOK	1	3	DOG	n/a	0	14	[0, 0, 0]	n/a	0	1	0	n/a	n/a	0.0	0	0	0	PAL2	0	R1121M
3043.21	4.0	1075640	STUDY_PAIR	n/a	wordpools/wordpool_EN.txt	DOG	HOOK	1	3	DOG	n/a	0	14	[0, 0, 0]	n/a	0	1	0	n/a	n/a	0.0	0	0	0	PAL2	0	R1121M
3048.244	0.25	1078157	STUDY_ORIENT	n/a	n/a	OWL	SHARK	2	6	OWL	n/a	0	14	[0, 0, 0]	n/a	0	1	0	n/a	n/a	0.0	0	0	0	PAL2	0	R1121M
3049.078	4.0	1078574	STUDY_PAIR	n/a	wordpools/wordpool_EN.txt	OWL	SHARK	2	6	OWL	n/a	0	14	[0, 0, 0]	n/a	0	1	0	n/a	n/a	0.0	0	0	0	PAL2	0	R1121M
3054.112	0.25	1081091	STUDY_ORIENT	n/a	n/a	BEAR	SOAP	3	5	SOAP	n/a	0	14	[0, 0, 0]	n/a	0	1	0	n/a	n/a	0.0	0	0	0	PAL2	0	R1121M
3055.129	4.0	1081599	STUDY_PAIR	n/a	wordpools/wordpool_EN.txt	BEAR	SOAP	3	5	SOAP	n/a	0	14	[0, 0, 0]	n/a	0	1	0	n/a	n/a	0.0	0	0	0	PAL2	0	R1121M
3060.163	0.25	1084116	STUDY_ORIENT	n/a	n/a	TREE	MOUSE	4	2	TREE	MOUSE	1	14	[0, 0, 0]	n/a	0	1	0	n/a	n/a	0.0	0	0	0	PAL2	0	R1121M
3061.046	4.0	1084557	STUDY_PAIR	n/a	wordpools/wordpool_EN.txt	TREE	MOUSE	4	2	TREE	MOUSE	1	14	[0, 0, 0]	n/a	0	1	0	n/a	n/a	0.0	0	0	0	PAL2	0	R1121M
3066.064	0.25	1087066	STUDY_ORIENT	n/a	n/a	CAGE	CHEEK	5	1	CHEEK	n/a	0	14	[0, 0, 0]	n/a	0	1	0	n/a	n/a	0.0	0	0	0	PAL2	0	R1121M
3067.048	4.0	1087558	STUDY_PAIR	n/a	wordpools/wordpool_EN.txt	CAGE	CHEEK	5	1	CHEEK	n/a	0	14	[0, 0, 0]	n/a	0	1	0	n/a	n/a	0.0	0	0	0	PAL2	0	R1121M
3072.082	0.25	1090075	STUDY_ORIENT	n/a	n/a	PEN	STOVE	6	4	STOVE	STONE	0	14	[0, 0, 0]	n/a	0	1	0	n/a	n/a	0.0	0	0	0	PAL2	0	R1121M
3072.982	4.0	1090525	STUDY_PAIR	n/a	wordpools/wordpool_EN.txt	PEN	STOVE	6	4	STOVE	STONE	0	14	[0, 0, 0]	n/a	0	1	0	n/a	n/a	0.0	0	0	0	PAL2	0	R1121M
3077.001	0.999	1092534	START	n/a	n/a	n/a	n/a	-999	-999	n/a	n/a	-999	15	[-999, -999, -999]	n/a	0	1	0	n/a	n/a	0.0	0	0	0	PAL2	0	R1121M
3078.0	0.016	1093034	MATH_START	n/a	n/a	n/a	n/a	-999	-999	n/a	n/a	-999	14	[0, 0, 0]	n/a	0	1	0	n/a	n/a	0.0	0	0	0	PAL2	0	R1121M
3078.016	5.668	1093042	PROB	5.626	n/a	n/a	n/a	-999	-999	n/a	n/a	-999	15	[8, 6, 4]	18	0	1	0	n/a	n/a	0.0	0	0	0	PAL2	0	R1121M
3083.684	6.318	1095875	PROB	6.293	n/a	n/a	n/a	-999	-999	n/a	n/a	-999	15	[3, 1, 6]	10	0	1	0	n/a	n/a	0.0	0	0	0	PAL2	0	R1121M
3090.002	9.343	1099034	PROB	9.343	n/a	n/a	n/a	-999	-999	n/a	n/a	-999	15	[9, 2, 2]	14	0	1	0	n/a	n/a	0.0	0	0	0	PAL2	0	R1121M
3099.345	0.009	1103705	STOP	n/a	n/a	n/a	n/a	-999	-999	n/a	n/a	-999	15	[-999, -999, -999]	n/a	0	1	0	n/a	n/a	0.0	0	0	0	PAL2	0	R1121M
3099.354	0.0	1103710	MATH_END	n/a	n/a	n/a	n/a	-999	-999	n/a	n/a	-999	14	[0, 0, 0]	n/a	0	1	0	n/a	n/a	0.0	0	0	0	PAL2	0	R1121M
3099.354	0.017	1103710	TEST_START	n/a	n/a	n/a	n/a	-999	-999	n/a	n/a	-999	14	[0, 0, 0]	n/a	0	1	0	n/a	n/a	0.0	0	0	0	PAL2	0	R1121M
3099.371	0.25	1103718	TEST_ORIENT	n/a	n/a	CAGE	CHEEK	5	1	CHEEK	n/a	0	14	[0, 0, 0]	n/a	0	1	0	n/a	n/a	0.0	0	0	0	PAL2	0	R1121M
3100.387	4.0	1104226	TEST_PROBE	n/a	wordpools/wordpool_EN.txt	CAGE	CHEEK	5	1	CHEEK	n/a	0	14	[0, 0, 0]	n/a	0	1	0	n/a	n/a	0.0	0	0	0	PAL2	0	R1121M
3100.39	2.598	1104228	REC_START	n/a	n/a	n/a	n/a	5	-999	n/a	n/a	0	14	[0, 0, 0]	n/a	0	1	0	n/a	n/a	0.0	0	0	0	PAL2	0	R1121M
3102.988	2.4	1105527	REC_EVENT	2.598	n/a	CAGE	CHEEK	5	1	CHEEK	<>	0	14	[0, 0, 0]	n/a	0	1	0	n/a	n/a	0.0	0	0	0	PAL2	0	R1121M
3105.388	0.051	1106727	REC_END	n/a	n/a	n/a	n/a	5	-999	n/a	n/a	-999	14	[0, 0, 0]	n/a	0	1	0	n/a	n/a	0.0	0	0	0	PAL2	0	R1121M
3105.439	0.25	1106752	TEST_ORIENT	n/a	n/a	TREE	MOUSE	4	2	TREE	MOUSE	1	14	[0, 0, 0]	n/a	0	1	0	n/a	n/a	0.0	0	0	0	PAL2	0	R1121M
3106.188	4.6	1107127	STIM_ON	n/a	n/a	TREE	MOUSE	4	2	TREE	MOUSE	1	14	[0, 0, 0]	n/a	1	1	4600	RFG1	RFG2	2000.0	50	230	300	PAL2	0	R1121M
3106.405	4.0	1107235	TEST_PROBE	n/a	wordpools/wordpool_EN.txt	TREE	MOUSE	4	2	TREE	MOUSE	1	14	[0, 0, 0]	n/a	1	1	4600	RFG1	RFG2	2000.0	50	230	300	PAL2	0	R1121M
3106.407	1.126	1107236	REC_START	n/a	n/a	n/a	n/a	4	-999	n/a	MOUSE	1	14	[0, 0, 0]	n/a	1	1	4600	RFG1	RFG2	2000.0	50	230	300	PAL2	0	R1121M
3107.533	3.873	1107799	REC_EVENT	1.126	n/a	TREE	MOUSE	4	2	TREE	MOUSE	1	14	[0, 0, 0]	n/a	1	1	4600	RFG1	RFG2	2000.0	50	230	300	PAL2	0	R1121M
3111.406	0.05	1109735	REC_END	n/a	n/a	n/a	n/a	4	-999	n/a	n/a	-999	14	[0, 0, 0]	n/a	0	1	0	n/a	n/a	0.0	0	0	0	PAL2	0	R1121M
3111.456	0.25	1109760	TEST_ORIENT	n/a	n/a	DOG	HOOK	1	3	DOG	n/a	0	14	[0, 0, 0]	n/a	0	1	0	n/a	n/a	0.0	0	0	0	PAL2	0	R1121M
3112.273	4.0	1110169	TEST_PROBE	n/a	wordpools/wordpool_EN.txt	DOG	HOOK	1	3	DOG	n/a	0	14	[0, 0, 0]	n/a	0	1	0	n/a	n/a	0.0	0	0	0	PAL2	0	R1121M
3112.274	2.154	1110169	REC_START	n/a	n/a	n/a	n/a	1	-999	n/a	n/a	0	14	[0, 0, 0]	n/a	0	1	0	n/a	n/a	0.0	0	0	0	PAL2	0	R1121M
3114.428	2.894	1111246	REC_EVENT	2.154	n/a	DOG	HOOK	1	3	DOG	<>	0	14	[0, 0, 0]	n/a	0	1	0	n/a	n/a	0.0	0	0	0	PAL2	0	R1121M
3117.322	0.019	1112693	REC_END	n/a	n/a	n/a	n/a	1	-999	n/a	n/a	-999	14	[0, 0, 0]	n/a	0	1	0	n/a	n/a	0.0	0	0	0	PAL2	0	R1121M
3117.341	0.25	1112703	TEST_ORIENT	n/a	n/a	PEN	STOVE	6	4	STOVE	STONE	0	14	[0, 0, 0]	n/a	0	1	0	n/a	n/a	0.0	0	0	0	PAL2	0	R1121M
3117.916	4.6	1112990	STIM_ON	n/a	n/a	PEN	STOVE	6	4	STOVE	STONE	0	14	[0, 0, 0]	n/a	1	1	4600	RFG1	RFG2	2000.0	50	230	300	PAL2	0	R1121M
3118.124	4.0	1113094	TEST_PROBE	n/a	wordpools/wordpool_EN.txt	PEN	STOVE	6	4	STOVE	STONE	0	14	[0, 0, 0]	n/a	1	1	4600	RFG1	RFG2	2000.0	50	230	300	PAL2	0	R1121M
3118.126	2.497	1113095	REC_START	n/a	n/a	n/a	n/a	6	-999	n/a	STONE	0	14	[0, 0, 0]	n/a	1	1	4600	RFG1	RFG2	2000.0	50	230	300	PAL2	0	R1121M
3120.623	2.502	1114343	REC_EVENT	2.497	n/a	PEN	STOVE	6	4	STOVE	STONE	0	14	[0, 0, 0]	n/a	1	1	4600	RFG1	RFG2	2000.0	50	230	300	PAL2	0	R1121M
3123.125	0.05	1115594	REC_END	n/a	n/a	n/a	n/a	6	-999	n/a	n/a	-999	14	[0, 0, 0]	n/a	0	1	0	n/a	n/a	0.0	0	0	0	PAL2	0	R1121M
3123.175	0.25	1115619	TEST_ORIENT	n/a	n/a	BEAR	SOAP	3	5	SOAP	n/a	0	14	[0, 0, 0]	n/a	0	1	0	n/a	n/a	0.0	0	0	0	PAL2	0	R1121M
3124.025	4.0	1116044	TEST_PROBE	n/a	wordpools/wordpool_EN.txt	BEAR	SOAP	3	5	SOAP	n/a	0	14	[0, 0, 0]	n/a	0	1	0	n/a	n/a	0.0	0	0	0	PAL2	0	R1121M
3124.027	4.503	1116045	REC_START	n/a	n/a	n/a	n/a	3	-999	n/a	n/a	0	14	[0, 0, 0]	n/a	0	1	0	n/a	n/a	0.0	0	0	0	PAL2	0	R1121M
3128.53	0.496	1118297	REC_EVENT	4.503	n/a	BEAR	SOAP	3	5	SOAP	<>	0	14	[0, 0, 0]	n/a	0	1	0	n/a	n/a	0.0	0	0	0	PAL2	0	R1121M
3129.026	0.05	1118545	REC_END	n/a	n/a	n/a	n/a	3	-999	n/a	n/a	-999	14	[0, 0, 0]	n/a	0	1	0	n/a	n/a	0.0	0	0	0	PAL2	0	R1121M
3129.076	0.25	1118570	TEST_ORIENT	n/a	n/a	OWL	SHARK	2	6	OWL	n/a	0	14	[0, 0, 0]	n/a	0	1	0	n/a	n/a	0.0	0	0	0	PAL2	0	R1121M
3129.723	4.6	1118893	STIM_ON	n/a	n/a	OWL	SHARK	2	6	OWL	n/a	0	14	[0, 0, 0]	n/a	1	1	4600	RFG1	RFG2	2000.0	50	230	300	PAL2	0	R1121M
3129.927	4.0	1118995	TEST_PROBE	n/a	wordpools/wordpool_EN.txt	OWL	SHARK	2	6	OWL	n/a	0	14	[0, 0, 0]	n/a	1	1	4600	RFG1	RFG2	2000.0	50	230	300	PAL2	0	R1121M
3129.928	1.95	1118996	REC_START	n/a	n/a	n/a	n/a	2	-999	n/a	n/a	0	14	[0, 0, 0]	n/a	1	1	4600	RFG1	RFG2	2000.0	50	230	300	PAL2	0	R1121M
3131.878	3.099	1119971	REC_EVENT	1.95	n/a	OWL	SHARK	2	6	OWL	<>	0	14	[0, 0, 0]	n/a	1	1	4600	RFG1	RFG2	2000.0	50	230	300	PAL2	0	R1121M
3134.977	13.128	1121520	REC_END	n/a	n/a	n/a	n/a	2	-999	n/a	n/a	-999	14	[0, 0, 0]	n/a	0	1	0	n/a	n/a	0.0	0	0	0	PAL2	0	R1121M
3148.105	10.445	1128083	ENCODING_START	n/a	n/a	n/a	n/a	0	-999	n/a	n/a	-999	15	[0, 0, 0]	n/a	0	1	0	n/a	n/a	0.0	0	0	0	PAL2	0	R1121M
3158.55	0.25	1133305	STUDY_ORIENT	n/a	n/a	RIB	ROPE	1	3	RIB	n/a	0	15	[0, 0, 0]	n/a	0	1	0	n/a	n/a	0.0	0	0	0	PAL2	0	R1121M
3159.232	4.6	1133646	STIM_ON	n/a	n/a	RIB	ROPE	1	3	RIB	n/a	0	15	[0, 0, 0]	n/a	1	1	4600	RFG1	RFG2	2000.0	50	230	300	PAL2	0	R1121M
3159.449	4.0	1133755	STUDY_PAIR	n/a	wordpools/wordpool_EN.txt	RIB	ROPE	1	3	RIB	n/a	0	15	[0, 0, 0]	n/a	1	1	4600	RFG1	RFG2	2000.0	50	230	300	PAL2	0	R1121M
3164.483	0.25	1136272	STUDY_ORIENT	n/a	n/a	BOMB	CHIN	2	2	BOMB	CHIN	1	15	[0, 0, 0]	n/a	0	1	0	n/a	n/a	0.0	0	0	0	PAL2	0	R1121M
3165.383	4.0	1136722	STUDY_PAIR	n/a	wordpools/wordpool_EN.txt	BOMB	CHIN	2	2	BOMB	CHIN	1	15	[0, 0, 0]	n/a	0	1	0	n/a	n/a	0.0	0	0	0	PAL2	0	R1121M
3170.401	0.25	1139230	STUDY_ORIENT	n/a	n/a	STEAM	SKI	3	1	STEAM	n/a	0	15	[0, 0, 0]	n/a	0	1	0	n/a	n/a	0.0	0	0	0	PAL2	0	R1121M
