onset	duration	sample	trial_type	response_time	stim_file	study_1	study_2	serialpos	probepos	probe_word	resp_word	correct	list	test	answer	stimulation	stim_list	stim_duration	anode_label	cathode_label	amplitude	pulse_freq	n_pulses	pulse_width	experiment	session	subject
0.0	67.228	28987	SESS_START	n/a	n/a	n/a	n/a	-999	-999	n/a	n/a	-999	-999	[0, 0, 0]	n/a	0	0	0	n/a	n/a	0.0	0	0	0	PAL2	0	R1130M
67.228	1.017	62599	START	n/a	n/a	n/a	n/a	-999	-999	n/a	n/a	-999	-1	[-999, -999, -999]	n/a	0	-999	0	n/a	n/a	0.0	0	0	0	PAL2	0	R1130M
68.245	7.285	63108	PROB	7.256	n/a	n/a	n/a	-999	-999	n/a	n/a	-999	-1	[1, 7, 3]	11	0	-999	0	n/a	n/a	0.0	0	0	0	PAL2	0	R1130M
75.53	9.801	66750	PROB	9.779	n/a	n/a	n/a	-999	-999	n/a	n/a	-999	-1	[6, 5, 8]	19	0	-999	0	n/a	n/a	0.0	0	0	0	PAL2	0	R1130M
85.331	7.73	71650	PROB	7.73	n/a	n/a	n/a	-999	-999	n/a	n/a	-999	-1	[2, 1, 2]	5	0	-999	0	n/a	n/a	0.0	0	0	0	PAL2	0	R1130M
93.061	79.864	75515	STOP	n/a	n/a	n/a	n/a	-999	-999	n/a	n/a	-999	-1	[-999, -999, -999]	n/a	0	-999	0	n/a	n/a	0.0	0	0	0	PAL2	0	R1130M
172.925	10.443	115445	ENCODING_START	n/a	n/a	n/a	n/a	0	-999	n/a	n/a	-999	1	[0, 0, 0]	n/a	0	1	0	n/a	n/a	0.0	0	0	0	PAL2	0	R1130M
183.368	0.25	120666	STUDY_ORIENT	n/a	n/a	TREE	SNAKE	1	5	TREE	n/a	0	1	[0, 0, 0]	n/a	0	1	0	n/a	n/a	0.0	0	0	0	PAL2	0	R1130M
184.334	4.0	121149	STUDY_PAIR	n/a	wordpools/wordpool_EN.txt	TREE	SNAKE	1	5	TREE	n/a	0	1	[0, 0, 0]	n/a	0	1	0	n/a	n/a	0.0	0	0	0	PAL2	0	R1130M
189.352	0.25	123658	STUDY_ORIENT	n/a	n/a	PLATE	GOLD	2	2	PLATE	GOLD	1	1	[0, 0, 0]	n/a	0	1	0	n/a	n/a	0.0	0	0	0	PAL2	0	R1130M
190.186	4.0	124075	STUDY_PAIR	n/a	wordpools/wordpool_EN.txt	PLATE	GOLD	2	2	PLATE	GOLD	1	1	[0, 0, 0]	n/a	0	1	0	n/a	n/a	0.0	0	0	0	PAL2	0	R1130M
195.22	0.25	126592	STUDY_ORIENT	n/a	n/a	BOY	THUMB	3	1	THUMB	n/a	0	1	[0, 0, 0]	n/a	0	1	0	n/a	n/a	0.0	0	0	0	PAL2	0	R1130M
196.204	4.0	127084	STUDY_PAIR	n/a	wordpools/wordpool_EN.txt	BOY	THUMB	3	1	THUMB	n/a	0	1	[0, 0, 0]	n/a	0	1	0	n/a	n/a	0.0	0	0	0	PAL2	0	R1130M
201.238	0.25	129601	STUDY_ORIENT	n/a	n/a	CAKE	COIN	4	4	CAKE	n/a	0	1	[0, 0, 0]	n/a	0	1	0	n/a	n/a	0.0	0	0	0	PAL2	0	R1130M
202.088	4.0	130025	STUDY_PAIR	n/a	wordpools/wordpool_EN.txt	CAKE	COIN	4	4	CAKE	n/a	0	1	[0, 0, 0]	n/a	0	1	0	n/a	n/a	0.0	0	0	0	PAL2	0	R1130M
207.106	0.25	132534	STUDY_ORIENT	n/a	n/a	CLAY	BIRD	5	3	BIRD	n/a	0	1	[0, 0, 0]	n/a	0	1	0	n/a	n/a	0.0	0	0	0	PAL2	0	R1130M
208.023	4.0	132993	STUDY_PAIR	n/a	wordpools/wordpool_EN.txt	CLAY	BIRD	5	3	BIRD	n/a	0	1	[0, 0, 0]	n/a	0	1	0	n/a	n/a	0.0	0	0	0	PAL2	0	R1130M
213.057	0.25	135510	STUDY_ORIENT	n/a	n/a	BOOT	DITCH	6	6	BOOT	n/a	0	1	[0, 0, 0]	n/a	0	1	0	n/a	n/a	0.0	0	0	0	PAL2	0	R1130M
213.89	4.0	135926	STUDY_PAIR	n/a	wordpools/wordpool_EN.txt	BOOT	DITCH	6	6	BOOT	n/a	0	1	[0, 0, 0]	n/a	0	1	0	n/a	n/a	0.0	0	0	0	PAL2	0	R1130M
217.891	1.0	137927	START	n/a	n/a	n/a	n/a	-999	-999	n/a	n/a	-999	1	[-999, -999, -999]	n/a	0	1	0	n/a	n/a	0.0	0	0	0	PAL2	0	R1130M
218.891	0.017	138427	MATH_START	n/a	n/a	n/a	n/a	-999	-999	n/a	n/a	-999	1	[0, 0, 0]	n/a	0	1	0	n/a	n/a	0.0	0	0	0	PAL2	0	R1130M
218.908	8.585	138435	PROB	8.553	n/a	n/a	n/a	-999	-999	n/a	n/a	-999	1	[5, 3, 6]	14	0	1	0	n/a	n/a	0.0	0	0	0	PAL2	0	R1130M
227.493	13.472	142727	PROB	13.472	n/a	n/a	n/a	-999	-999	n/a	n/a	-999	1	[9, 8, 1]	18	0	1	0	n/a	n/a	0.0	0	0	0	PAL2	0	R1130M
240.965	0.014	149463	STOP	n/a	n/a	n/a	n/a	-999	-999	n/a	n/a	-999	1	[-999, -999, -999]	n/a	0	1	0	n/a	n/a	0.0	0	0	0	PAL2	0	R1130M
240.979	0.0	149470	MATH_END	n/a	n/a	n/a	n/a	-999	-999	n/a	n/a	-999	1	[0, 0, 0]	n/a	0	1	0	n/a	n/a	0.0	0	0	0	PAL2	0	R1130M
240.979	0.017	149470	TEST_START	n/a	n/a	n/a	n/a	-999	-999	n/a	n/a	-999	1	[0, 0, 0]	n/a	0	1	0	n/a	n/a	0.0	0	0	0	PAL2	0	R1130M
240.996	0.25	149478	TEST_ORIENT	n/a	n/a	BOY	THUMB	3	1	THUMB	n/a	0	1	[0, 0, 0]	n/a	0	1	0	n/a	n/a	0.0	0	0	0	PAL2	0	R1130M
241.829	4.0	149895	TEST_PROBE	n/a	wordpools/wordpool_EN.txt	BOY	THUMB	3	1	THUMB	n/a	0	1	[0, 0, 0]	n/a	0	1	0	n/a	n/a	0.0	0	0	0	PAL2	0	R1130M
241.83	0.0	149895	REC_START	n/a	n/a	n/a	n/a	3	-999	n/a	n/a	0	1	[0, 0, 0]	n/a	0	1	0	n/a	n/a	0.0	0	0	0	PAL2	0	R1130M
241.83	5.008	149895	REC_EVENT	0.0	n/a	BOY	THUMB	3	1	THUMB	<>	0	1	[0, 0, 0]	n/a	0	1	0	n/a	n/a	0.0	0	0	0	PAL2	0	R1130M
246.838	0.009	152399	REC_END	n/a	n/a	n/a	n/a	3	-999	n/a	n/a	-999	1	[0, 0, 0]	n/a	0	1	0	n/a	n/a	0.0	0	0	0	PAL2	0	R1130M
246.847	0.25	152404	TEST_ORIENT	n/a	n/a	PLATE	GOLD	2	2	PLATE	GOLD	1	1	[0, 0, 0]	n/a	0	1	0	n/a	n/a	0.0	0	0	0	PAL2	0	R1130M
247.527	4.6	152744	STIM_ON	n/a	n/a	PLATE	GOLD	2	2	PLATE	GOLD	1	1	[0, 0, 0]	n/a	1	1	4600	LFG15	LFG16	1000.0	50	230	300	PAL2	0	R1130M
247.73	4.0	152845	TEST_PROBE	n/a	wordpools/wordpool_EN.txt	PLATE	GOLD	2	2	PLATE	GOLD	1	1	[0, 0, 0]	n/a	1	1	4600	LFG15	LFG16	1000.0	50	230	300	PAL2	0	R1130M
247.731	1.228	152846	REC_START	n/a	n/a	n/a	n/a	2	-999	n/a	GOLD	1	1	[0, 0, 0]	n/a	1	1	4600	LFG15	LFG16	1000.0	50	230	300	PAL2	0	R1130M
248.959	3.781	153460	REC_EVENT	1.228	n/a	PLATE	GOLD	2	2	PLATE	GOLD	1	1	[0, 0, 0]	n/a	1	1	4600	LFG15	LFG16	1000.0	50	230	300	PAL2	0	R1130M
252.74	0.008	155350	REC_END	n/a	n/a	n/a	n/a	2	-999	n/a	n/a	-999	1	[0, 0, 0]	n/a	0	1	0	n/a	n/a	0.0	0	0	0	PAL2	0	R1130M
252.748	0.25	155354	TEST_ORIENT	n/a	n/a	CLAY	BIRD	5	3	BIRD	n/a	0	1	[0, 0, 0]	n/a	0	1	0	n/a	n/a	0.0	0	0	0	PAL2	0	R1130M
253.748	4.0	155854	TEST_PROBE	n/a	wordpools/wordpool_EN.txt	CLAY	BIRD	5	3	BIRD	n/a	0	1	[0, 0, 0]	n/a	0	1	0	n/a	n/a	0.0	0	0	0	PAL2	0	R1130M
253.749	0.0	155855	REC_START	n/a	n/a	n/a	n/a	5	-999	n/a	n/a	0	1	[0, 0, 0]	n/a	0	1	0	n/a	n/a	0.0	0	0	0	PAL2	0	R1130M
253.749	5.009	155855	REC_EVENT	0.0	n/a	CLAY	BIRD	5	3	BIRD	<>	0	1	[0, 0, 0]	n/a	0	1	0	n/a	n/a	0.0	0	0	0	PAL2	0	R1130M
258.758	0.008	158359	REC_END	n/a	n/a	n/a	n/a	5	-999	n/a	n/a	-999	1	[0, 0, 0]	n/a	0	1	0	n/a	n/a	0.0	0	0	0	PAL2	0	R1130M
258.766	0.25	158363	TEST_ORIENT	n/a	n/a	CAKE	COIN	4	4	CAKE	n/a	0	1	[0, 0, 0]	n/a	0	1	0	n/a	n/a	0.0	0	0	0	PAL2	0	R1130M
259.537	4.6	158748	STIM_ON	n/a	n/a	CAKE	COIN	4	4	CAKE	n/a	0	1	[0, 0, 0]	n/a	1	1	4600	LFG15	LFG16	1000.0	50	230	300	PAL2	0	R1130M
259.749	4.0	158854	TEST_PROBE	n/a	wordpools/wordpool_EN.txt	CAKE	COIN	4	4	CAKE	n/a	0	1	[0, 0, 0]	n/a	1	1	4600	LFG15	LFG16	1000.0	50	230	300	PAL2	0	R1130M
259.75	0.0	158855	REC_START	n/a	n/a	n/a	n/a	4	-999	n/a	n/a	0	1	[0, 0, 0]	n/a	1	1	4600	LFG15	LFG16	1000.0	50	230	300	PAL2	0	R1130M
259.75	5.008	158855	REC_EVENT	0.0	n/a	CAKE	COIN	4	4	CAKE	<>	0	1	[0, 0, 0]	n/a	1	1	4600	LFG15	LFG16	1000.0	50	230	300	PAL2	0	R1130M
264.758	0.009	161359	REC_END	n/a	n/a	n/a	n/a	4	-999	n/a	n/a	-999	1	[0, 0, 0]	n/a	0	1	0	n/a	n/a	0.0	0	0	0	PAL2	0	R1130M
264.767	0.25	161363	TEST_ORIENT	n/a	n/a	TREE	SNAKE	1	5	TREE	n/a	0	1	[0, 0, 0]	n/a	0	1	0	n/a	n/a	0.0	0	0	0	PAL2	0	R1130M
265.684	4.0	161822	TEST_PROBE	n/a	wordpools/wordpool_EN.txt	TREE	SNAKE	1	5	TREE	n/a	0	1	[0, 0, 0]	n/a	0	1	0	n/a	n/a	0.0	0	0	0	PAL2	0	R1130M
265.685	0.0	161822	REC_START	n/a	n/a	n/a	n/a	1	-999	n/a	n/a	0	1	[0, 0, 0]	n/a	0	1	0	n/a	n/a	0.0	0	0	0	PAL2	0	R1130M
265.685	5.026	161822	REC_EVENT	0.0	n/a	TREE	SNAKE	1	5	TREE	<>	0	1	[0, 0, 0]	n/a	0	1	0	n/a	n/a	0.0	0	0	0	PAL2	0	R1130M
270.711	0.007	164335	REC_END	n/a	n/a	n/a	n/a	1	-999	n/a	n/a	-999	1	[0, 0, 0]	n/a	0	1	0	n/a	n/a	0.0	0	0	0	PAL2	0	R1130M
270.718	0.25	164339	TEST_ORIENT	n/a	n/a	BOOT	DITCH	6	6	BOOT	n/a	0	1	[0, 0, 0]	n/a	0	1	0	n/a	n/a	0.0	0	0	0	PAL2	0	R1130M
271.404	4.6	164682	STIM_ON	n/a	n/a	BOOT	DITCH	6	6	BOOT	n/a	0	1	[0, 0, 0]	n/a	1	1	4600	LFG15	LFG16	1000.0	50	230	300	PAL2	0	R1130M
271.618	4.0	164789	TEST_PROBE	n/a	wordpools/wordpool_EN.txt	BOOT	DITCH	6	6	BOOT	n/a	0	1	[0, 0, 0]	n/a	1	1	4600	LFG15	LFG16	1000.0	50	230	300	PAL2	0	R1130M
271.618	0.0	164789	REC_START	n/a	n/a	n/a	n/a	6	-999	n/a	n/a	0	1	[0, 0, 0]	n/a	1	1	4600	LFG15	LFG16	1000.0	50	230	300	PAL2	0	R1130M
271.618	5.018	164789	REC_EVENT	0.0	n/a	BOOT	DITCH	6	6	BOOT	<>	0	1	[0, 0, 0]	n/a	1	1	4600	LFG15	LFG16	1000.0	50	230	300	PAL2	0	R1130M
276.636	8.193	167297	REC_END	n/a	n/a	n/a	n/a	6	-999	n/a	n/a	-999	1	[0, 0, 0]	n/a	0	1	0	n/a	n/a	0.0	0	0	0	PAL2	0	R1130M
284.829	10.444	171394	ENCODING_START	n/a	n/a	n/a	n/a	0	-999	n/a	n/a	-999	2	[0, 0, 0]	n/a	0	0	0	n/a	n/a	0.0	0	0	0	PAL2	0	R1130M
295.273	0.25	176615	STUDY_ORIENT	n/a	n/a	MOON	HEART	1	1	HEART	n/a	0	2	[0, 0, 0]	n/a	0	0	0	n/a	n/a	0.0	0	0	0	PAL2	0	R1130M
296.157	4.0	177057	STUDY_PAIR	n/a	wordpools/wordpool_EN.txt	MOON	HEART	1	1	HEART	n/a	0	2	[0, 0, 0]	n/a	0	0	0	n/a	n/a	0.0	0	0	0	PAL2	0	R1130M
301.191	0.25	179574	STUDY_ORIENT	n/a	n/a	DOCK	CUBE	2	6	DOCK	n/a	0	2	[0, 0, 0]	n/a	0	0	0	n/a	n/a	0.0	0	0	0	PAL2	0	R1130M
302.175	4.0	180066	STUDY_PAIR	n/a	wordpools/wordpool_EN.txt	DOCK	CUBE	2	6	DOCK	n/a	0	2	[0, 0, 0]	n/a	0	0	0	n/a	n/a	0.0	0	0	0	PAL2	0	R1130M
307.209	0.25	182583	STUDY_ORIENT	n/a	n/a	TEETH	CAT	3	3	CAT	TOOTH	0	2	[0, 0, 0]	n/a	0	0	0	n/a	n/a	0.0	0	0	0	PAL2	0	R1130M
308.143	4.0	183050	STUDY_PAIR	n/a	wordpools/wordpool_EN.txt	TEETH	CAT	3	3	CAT	TOOTH	0	2	[0, 0, 0]	n/a	0	0	0	n/a	n/a	0.0	0	0	0	PAL2	0	R1130M
313.177	0.25	185567	STUDY_ORIENT	n/a	n/a	ANT	BOOK	4	2	BOOK	ANT	1	2	[0, 0, 0]	n/a	0	0	0	n/a	n/a	0.0	0	0	0	PAL2	0	R1130M
314.11	4.0	186033	STUDY_PAIR	n/a	wordpools/wordpool_EN.txt	ANT	BOOK	4	2	BOOK	ANT	1	2	[0, 0, 0]	n/a	0	0	0	n/a	n/a	0.0	0	0	0	PAL2	0	R1130M
319.128	0.25	188542	STUDY_ORIENT	n/a	n/a	TRUCK	VINE	5	5	TRUCK	VINE	1	2	[0, 0, 0]	n/a	0	0	0	n/a	n/a	0.0	0	0	0	PAL2	0	R1130M
319.995	4.0	188976	STUDY_PAIR	n/a	wordpools/wordpool_EN.txt	TRUCK	VINE	5	5	TRUCK	VINE	1	2	[0, 0, 0]	n/a	0	0	0	n/a	n/a	0.0	0	0	0	PAL2	0	R1130M
325.029	0.25	191493	STUDY_ORIENT	n/a	n/a	COW	CLOTH	6	4	CLOTH	n/a	0	2	[0, 0, 0]	n/a	0	0	0	n/a	n/a	0.0	0	0	0	PAL2	0	R1130M
325.979	4.0	191968	STUDY_PAIR	n/a	wordpools/wordpool_EN.txt	COW	CLOTH	6	4	CLOTH	n/a	0	2	[0, 0, 0]	n/a	0	0	0	n/a	n/a	0.0	0	0	0	PAL2	0	R1130M
329.98	1.0	193968	START	n/a	n/a	n/a	n/a	-999	-999	n/a	n/a	-999	2	[-999, -999, -999]	n/a	0	0	0	n/a	n/a	0.0	0	0	0	PAL2	0	R1130M
330.98	0.017	194468	MATH_START	n/a	n/a	n/a	n/a	-999	-999	n/a	n/a	-999	2	[0, 0, 0]	n/a	0	0	0	n/a	n/a	0.0	0	0	0	PAL2	0	R1130M
330.997	7.018	194476	PROB	6.992	n/a	n/a	n/a	-999	-999	n/a	n/a	-999	2	[2, 1, 2]	5	0	0	0	n/a	n/a	0.0	0	0	0	PAL2	0	R1130M
338.015	9.669	197985	PROB	9.646	n/a	n/a	n/a	-999	-999	n/a	n/a	-999	2	[7, 7, 3]	17	0	0	0	n/a	n/a	0.0	0	0	0	PAL2	0	R1130M
347.684	11.265	202819	PROB	11.265	n/a	n/a	n/a	-999	-999	n/a	n/a	-999	2	[3, 7, 6]	16	0	0	0	n/a	n/a	0.0	0	0	0	PAL2	0	R1130M
358.949	0.004	208452	STOP	n/a	n/a	n/a	n/a	-999	-999	n/a	n/a	-999	2	[-999, -999, -999]	n/a	0	0	0	n/a	n/a	0.0	0	0	0	PAL2	0	R1130M
358.953	0.0	208454	MATH_END	n/a	n/a	n/a	n/a	-999	-999	n/a	n/a	-999	2	[0, 0, 0]	n/a	0	0	0	n/a	n/a	0.0	0	0	0	PAL2	0	R1130M
358.953	0.016	208454	TEST_START	n/a	n/a	n/a	n/a	-999	-999	n/a	n/a	-999	2	[0, 0, 0]	n/a	0	0	0	n/a	n/a	0.0	0	0	0	PAL2	0	R1130M
358.969	0.25	208462	TEST_ORIENT	n/a	n/a	MOON	HEART	1	1	HEART	n/a	0	2	[0, 0, 0]	n/a	0	0	0	n/a	n/a	0.0	0	0	0	PAL2	0	R1130M
359.886	4.0	208920	TEST_PROBE	n/a	wordpools/wordpool_EN.txt	MOON	HEART	1	1	HEART	n/a	0	2	[0, 0, 0]	n/a	0	0	0	n/a	n/a	0.0	0	0	0	PAL2	0	R1130M
359.887	5.009	208921	REC_START	n/a	n/a	n/a	n/a	1	-999	n/a	n/a	0	2	[0, 0, 0]	n/a	0	0	0	n/a	n/a	0.0	0	0	0	PAL2	0	R1130M
364.896	0.002	211425	REC_EVENT	5.009	n/a	MOON	HEART	1	1	HEART	<>	0	2	[0, 0, 0]	n/a	0	0	0	n/a	n/a	0.0	0	0	0	PAL2	0	R1130M
364.898	0.022	211426	REC_END	n/a	n/a	n/a	n/a	1	-999	n/a	n/a	-999	2	[0, 0, 0]	n/a	0	0	0	n/a	n/a	0.0	0	0	0	PAL2	0	R1130M
364.92	0.25	211437	TEST_ORIENT	n/a	n/a	ANT	BOOK	4	2	BOOK	ANT	1	2	[0, 0, 0]	n/a	0	0	0	n/a	n/a	0.0	0	0	0	PAL2	0	R1130M
365.804	4.0	211879	TEST_PROBE	n/a	wordpools/wordpool_EN.txt	ANT	BOOK	4	2	BOOK	ANT	1	2	[0, 0, 0]	n/a	0	0	0	n/a	n/a	0.0	0	0	0	PAL2	0	R1130M
365.804	3.102	211879	REC_START	n/a	n/a	n/a	n/a	4	-999	n/a	ANT	1	2	[0, 0, 0]	n/a	0	0	0	n/a	n/a	0.0	0	0	0	PAL2	0	R1130M
368.906	1.916	213430	REC_EVENT	3.102	n/a	ANT	BOOK	4	2	BOOK	ANT	1	2	[0, 0, 0]	n/a	0	0	0	n/a	n/a	0.0	0	0	0	PAL2	0	R1130M
370.822	0.016	214388	REC_END	n/a	n/a	n/a	n/a	4	-999	n/a	n/a	-999	2	[0, 0, 0]	n/a	0	0	0	n/a	n/a	0.0	0	0	0	PAL2	0	R1130M
370.838	0.25	214396	TEST_ORIENT	n/a	n/a	TEETH	CAT	3	3	CAT	TOOTH	0	2	[0, 0, 0]	n/a	0	0	0	n/a	n/a	0.0	0	0	0	PAL2	0	R1130M
371.839	0.0	214896	REC_START	n/a	n/a	n/a	n/a	3	-999	n/a	TOOTH	0	2	[0, 0, 0]	n/a	0	0	0	n/a	n/a	0.0	0	0	0	PAL2	0	R1130M
371.839	4.0	214896	TEST_PROBE	n/a	wordpools/wordpool_EN.txt	TEETH	CAT	3	3	CAT	TOOTH	0	2	[0, 0, 0]	n/a	0	0	0	n/a	n/a	0.0	0	0	0	PAL2	0	R1130M
374.935	1.921	216444	REC_EVENT	3.096	n/a	TEETH	CAT	3	3	CAT	TOOTH	0	2	[0, 0, 0]	n/a	0	0	0	n/a	n/a	0.0	0	0	0	PAL2	0	R1130M
376.856	0.017	217405	REC_END	n/a	n/a	n/a	n/a	3	-999	n/a	n/a	-999	2	[0, 0, 0]	n/a	0	0	0	n/a	n/a	0.0	0	0	0	PAL2	0	R1130M
376.873	0.25	217413	TEST_ORIENT	n/a	n/a	COW	CLOTH	6	4	CLOTH	n/a	0	2	[0, 0, 0]	n/a	0	0	0	n/a	n/a	0.0	0	0	0	PAL2	0	R1130M
377.806	4.0	217880	TEST_PROBE	n/a	wordpools/wordpool_EN.txt	COW	CLOTH	6	4	CLOTH	n/a	0	2	[0, 0, 0]	n/a	0	0	0	n/a	n/a	0.0	0	0	0	PAL2	0	R1130M
377.807	5.015	217880	REC_START	n/a	n/a	n/a	n/a	6	-999	n/a	n/a	0	2	[0, 0, 0]	n/a	0	0	0	n/a	n/a	0.0	0	0	0	PAL2	0	R1130M
382.822	0.0	220387	REC_EVENT	5.015	n/a	COW	CLOTH	6	4	CLOTH	<>	0	2	[0, 0, 0]	n/a	0	0	0	n/a	n/a	0.0	0	0	0	PAL2	0	R1130M
382.822	0.019	220387	REC_END	n/a	n/a	n/a	n/a	6	-999	n/a	n/a	-999	2	[0, 0, 0]	n/a	0	0	0	n/a	n/a	0.0	0	0	0	PAL2	0	R1130M
382.841	0.25	220397	TEST_ORIENT	n/a	n/a	TRUCK	VINE	5	5	TRUCK	VINE	1	2	[0, 0, 0]	n/a	0	0	0	n/a	n/a	0.0	0	0	0	PAL2	0	R1130M
383.874	4.0	220913	TEST_PROBE	n/a	wordpools/wordpool_EN.txt	TRUCK	VINE	5	5	TRUCK	VINE	1	2	[0, 0, 0]	n/a	0	0	0	n/a	n/a	0.0	0	0	0	PAL2	0	R1130M
383.875	0.967	220914	REC_START	n/a	n/a	n/a	n/a	5	-999	n/a	VINE	1	2	[0, 0, 0]	n/a	0	0	0	n/a	n/a	0.0	0	0	0	PAL2	0	R1130M
384.842	4.044	221397	REC_EVENT	0.967	n/a	TRUCK	VINE	5	5	TRUCK	VINE	1	2	[0, 0, 0]	n/a	0	0	0	n/a	n/a	0.0	0	0	0	PAL2	0	R1130M
388.886	0.023	223419	REC_END	n/a	n/a	n/a	n/a	5	-999	n/a	n/a	-999	2	[0, 0, 0]	n/a	0	0	0	n/a	n/a	0.0	0	0	0	PAL2	0	R1130M
388.909	0.25	223431	TEST_ORIENT	n/a	n/a	DOCK	CUBE	2	6	DOCK	n/a	0	2	[0, 0, 0]	n/a	0	0	0	n/a	n/a	0.0	0	0	0	PAL2	0	R1130M
389.809	4.0	223881	TEST_PROBE	n/a	wordpools/wordpool_EN.txt	DOCK	CUBE	2	6	DOCK	n/a	0	2	[0, 0, 0]	n/a	0	0	0	n/a	n/a	0.0	0	0	0	PAL2	0	R1130M
389.809	0.0	223881	REC_START	n/a	n/a	n/a	n/a	2	-999	n/a	n/a	0	2	[0, 0, 0]	n/a	0	0	0	n/a	n/a	0.0	0	0	0	PAL2	0	R1130M
389.809	5.017	223881	REC_EVENT	0.0	n/a	DOCK	CUBE	2	6	DOCK	<>	0	2	[0, 0, 0]	n/a	0	0	0	n/a	n/a	0.0	0	0	0	PAL2	0	R1130M
394.826	21.515	226389	REC_END	n/a	n/a	n/a	n/a	2	-999	n/a	n/a	-999	2	[0, 0, 0]	n/a	0	0	0	n/a	n/a	0.0	0	0	0	PAL2	0	R1130M
416.341	10.442	237146	ENCODING_START	n/a	n/a	n/a	n/a	0	-999	n/a	n/a	-999	3	[0, 0, 0]	n/a	0	1	0	n/a	n/a	0.0	0	0	0	PAL2	0	R1130M
426.783	0.25	242367	STUDY_ORIENT	n/a	n/a	PEACH	MOUTH	1	3	PEACH	n/a	0	3	[0, 0, 0]	n/a	0	1	0	n/a	n/a	0.0	0	0	0	PAL2	0	R1130M
427.363	4.6	242657	STIM_ON	n/a	n/a	PEACH	MOUTH	1	3	PEACH	n/a	0	3	[0, 0, 0]	n/a	1	1	4600	LFG15	LFG16	1000.0	50	230	300	PAL2	0	R1130M
427.566	4.0	242758	STUDY_PAIR	n/a	wordpools/wordpool_EN.txt	PEACH	MOUTH	1	3	PEACH	n/a	0	3	[0, 0, 0]	n/a	1	1	4600	LFG15	LFG16	1000.0	50	230	300	PAL2	0	R1130M
432.584	0.25	245267	STUDY_ORIENT	n/a	n/a	FILM	MOLE	2	4	FILM	n/a	0	3	[0, 0, 0]	n/a	0	1	0	n/a	n/a	0.0	0	0	0	PAL2	0	R1130M
433.401	4.0	245676	STUDY_PAIR	n/a	wordpools/wordpool_EN.txt	FILM	MOLE	2	4	FILM	n/a	0	3	[0, 0, 0]	n/a	0	1	0	n/a	n/a	0.0	0	0	0	PAL2	0	R1130M
438.435	0.25	248192	STUDY_ORIENT	n/a	n/a	OAK	BRIDGE	3	1	BRIDGE	n/a	0	3	[0, 0, 0]	n/a	0	1	0	n/a	n/a	0.0	0	0	0	PAL2	0	R1130M
439.243	4.6	248596	STIM_ON	n/a	n/a	OAK	BRIDGE	3	1	BRIDGE	n/a	0	3	[0, 0, 0]	n/a	1	1	4600	LFG15	LFG16	1000.0	50	230	300	PAL2	0	R1130M
439.452	4.0	248701	STUDY_PAIR	n/a	wordpools/wordpool_EN.txt	OAK	BRIDGE	3	1	BRIDGE	n/a	0	3	[0, 0, 0]	n/a	1	1	4600	LFG15	LFG16	1000.0	50	230	300	PAL2	0	R1130M
444.486	0.25	251218	STUDY_ORIENT	n/a	n/a	VAN	SKY	4	6	SKY	n/a	0	3	[0, 0, 0]	n/a	0	1	0	n/a	n/a	0.0	0	0	0	PAL2	0	R1130M
445.47	4.0	251710	STUDY_PAIR	n/a	wordpools/wordpool_EN.txt	VAN	SKY	4	6	SKY	n/a	0	3	[0, 0, 0]	n/a	0	1	0	n/a	n/a	0.0	0	0	0	PAL2	0	R1130M
450.504	0.25	254227	STUDY_ORIENT	n/a	n/a	ROOM	DUCK	5	5	ROOM	DUCK	1	3	[0, 0, 0]	n/a	0	1	0	n/a	n/a	0.0	0	0	0	PAL2	0	R1130M
451.253	4.6	254601	STIM_ON	n/a	n/a	ROOM	DUCK	5	5	ROOM	DUCK	1	3	[0, 0, 0]	n/a	1	1	4600	LFG15	LFG16	1000.0	50	230	300	PAL2	0	R1130M
451.454	4.0	254702	STUDY_PAIR	n/a	wordpools/wordpool_EN.txt	ROOM	DUCK	5	5	ROOM	DUCK	1	3	[0, 0, 0]	n/a	1	1	4600	LFG15	LFG16	1000.0	50	230	300	PAL2	0	R1130M
456.472	0.25	257210	STUDY_ORIENT	n/a	n/a	LEG	HOOK	6	2	LEG	HORN	0	3	[0, 0, 0]	n/a	0	1	0	n/a	n/a	0.0	0	0	0	PAL2	0	R1130M
457.306	4.0	257627	STUDY_PAIR	n/a	wordpools/wordpool_EN.txt	LEG	HOOK	6	2	LEG	HORN	0	3	[0, 0, 0]	n/a	0	1	0	n/a	n/a	0.0	0	0	0	PAL2	0	R1130M
461.324	0.999	259636	START	n/a	n/a	n/a	n/a	-999	-999	n/a	n/a	-999	3	[-999, -999, -999]	n/a	0	1	0	n/a	n/a	0.0	0	0	0	PAL2	0	R1130M
462.323	0.017	260136	MATH_START	n/a	n/a	n/a	n/a	-999	-999	n/a	n/a	-999	3	[0, 0, 0]	n/a	0	1	0	n/a	n/a	0.0	0	0	0	PAL2	0	R1130M
462.34	12.452	260144	PROB	12.417	n/a	n/a	n/a	-999	-999	n/a	n/a	-999	3	[9, 9, 6]	24	0	1	0	n/a	n/a	0.0	0	0	0	PAL2	0	R1130M
474.792	7.133	266370	PROB	7.133	n/a	n/a	n/a	-999	-999	n/a	n/a	-999	3	[7, 1, 3]	11	0	1	0	n/a	n/a	0.0	0	0	0	PAL2	0	R1130M
481.925	0.002	269936	STOP	n/a	n/a	n/a	n/a	-999	-999	n/a	n/a	-999	3	[-999, -999, -999]	n/a	0	1	0	n/a	n/a	0.0	0	0	0	PAL2	0	R1130M
481.927	0.0	269937	MATH_END	n/a	n/a	n/a	n/a	-999	-999	n/a	n/a	-999	3	[0, 0, 0]	n/a	0	1	0	n/a	n/a	0.0	0	0	0	PAL2	0	R1130M
481.927	0.017	269937	TEST_START	n/a	n/a	n/a	n/a	-999	-999	n/a	n/a	-999	3	[0, 0, 0]	n/a	0	1	0	n/a	n/a	0.0	0	0	0	PAL2	0	R1130M
481.944	0.25	269946	TEST_ORIENT	n/a	n/a	OAK	BRIDGE	3	1	BRIDGE	n/a	0	3	[0, 0, 0]	n/a	0	1	0	n/a	n/a	0.0	0	0	0	PAL2	0	R1130M
482.877	4.0	270412	TEST_PROBE	n/a	wordpools/wordpool_EN.txt	OAK	BRIDGE	3	1	BRIDGE	n/a	0	3	[0, 0, 0]	n/a	0	1	0	n/a	n/a	0.0	0	0	0	PAL2	0	R1130M
482.878	4.998	270413	REC_START	n/a	n/a	n/a	n/a	3	-999	n/a	n/a	0	3	[0, 0, 0]	n/a	0	1	0	n/a	n/a	0.0	0	0	0	PAL2	0	R1130M
487.876	0.002	272912	REC_EVENT	4.998	n/a	OAK	BRIDGE	3	1	BRIDGE	<>	0	3	[0, 0, 0]	n/a	0	1	0	n/a	n/a	0.0	0	0	0	PAL2	0	R1130M
487.878	0.017	272913	REC_END	n/a	n/a	n/a	n/a	3	-999	n/a	n/a	-999	3	[0, 0, 0]	n/a	0	1	0	n/a	n/a	0.0	0	0	0	PAL2	0	R1130M
487.895	0.25	272921	TEST_ORIENT	n/a	n/a	LEG	HOOK	6	2	LEG	HORN	0	3	[0, 0, 0]	n/a	0	1	0	n/a	n/a	0.0	0	0	0	PAL2	0	R1130M
488.829	4.0	273388	TEST_PROBE	n/a	wordpools/wordpool_EN.txt	LEG	HOOK	6	2	LEG	HORN	0	3	[0, 0, 0]	n/a	0	1	0	n/a	n/a	0.0	0	0	0	PAL2	0	R1130M
488.829	4.235	273388	REC_START	n/a	n/a	n/a	n/a	6	-999	n/a	HORN	0	3	[0, 0, 0]	n/a	0	1	0	n/a	n/a	0.0	0	0	0	PAL2	0	R1130M
493.064	0.782	275505	REC_EVENT	4.235	n/a	LEG	HOOK	6	2	LEG	HORN	0	3	[0, 0, 0]	n/a	0	1	0	n/a	n/a	0.0	0	0	0	PAL2	0	R1130M
493.846	0.017	275896	REC_END	n/a	n/a	n/a	n/a	6	-999	n/a	n/a	-999	3	[0, 0, 0]	n/a	0	1	0	n/a	n/a	0.0	0	0	0	PAL2	0	R1130M
493.863	0.25	275905	TEST_ORIENT	n/a	n/a	PEACH	MOUTH	1	3	PEACH	n/a	0	3	[0, 0, 0]	n/a	0	1	0	n/a	n/a	0.0	0	0	0	PAL2	0	R1130M
494.896	4.0	276421	TEST_PROBE	n/a	wordpools/wordpool_EN.txt	PEACH	MOUTH	1	3	PEACH	n/a	0	3	[0, 0, 0]	n/a	0	1	0	n/a	n/a	0.0	0	0	0	PAL2	0	R1130M
494.897	0.0	276422	REC_START	n/a	n/a	n/a	n/a	1	-999	n/a	n/a	0	3	[0, 0, 0]	n/a	0	1	0	n/a	n/a	0.0	0	0	0	PAL2	0	R1130M
494.897	5.011	276422	REC_EVENT	0.0	n/a	PEACH	MOUTH	1	3	PEACH	<>	0	3	[0, 0, 0]	n/a	0	1	0	n/a	n/a	0.0	0	0	0	PAL2	0	R1130M
499.908	0.023	278927	REC_END	n/a	n/a	n/a	n/a	1	-999	n/a	n/a	-999	3	[0, 0, 0]	n/a	0	1	0	n/a	n/a	0.0	0	0	0	PAL2	0	R1130M
499.931	0.25	278939	TEST_ORIENT	n/a	n/a	FILM	MOLE	2	4	FILM	n/a	0	3	[0, 0, 0]	n/a	0	1	0	n/a	n/a	0.0	0	0	0	PAL2	0	R1130M
500.864	4.0	279405	TEST_PROBE	n/a	wordpools/wordpool_EN.txt	FILM	MOLE	2	4	FILM	n/a	0	3	[0, 0, 0]	n/a	0	1	0	n/a	n/a	0.0	0	0	0	PAL2	0	R1130M
500.865	0.0	279406	REC_START	n/a	n/a	n/a	n/a	2	-999	n/a	n/a	0	3	[0, 0, 0]	n/a	0	1	0	n/a	n/a	0.0	0	0	0	PAL2	0	R1130M
500.865	5.011	279406	REC_EVENT	0.0	n/a	FILM	MOLE	2	4	FILM	<>	0	3	[0, 0, 0]	n/a	0	1	0	n/a	n/a	0.0	0	0	0	PAL2	0	R1130M
505.876	0.023	281911	REC_END	n/a	n/a	n/a	n/a	2	-999	n/a	n/a	-999	3	[0, 0, 0]	n/a	0	1	0	n/a	n/a	0.0	0	0	0	PAL2	0	R1130M
505.899	0.25	281923	TEST_ORIENT	n/a	n/a	ROOM	DUCK	5	5	ROOM	DUCK	1	3	[0, 0, 0]	n/a	0	1	0	n/a	n/a	0.0	0	0	0	PAL2	0	R1130M
506.799	4.0	282373	TEST_PROBE	n/a	wordpools/wordpool_EN.txt	ROOM	DUCK	5	5	ROOM	DUCK	1	3	[0, 0, 0]	n/a	0	1	0	n/a	n/a	0.0	0	0	0	PAL2	0	R1130M
506.799	1.655	282373	REC_START	n/a	n/a	n/a	n/a	5	-999	n/a	DUCK	1	3	[0, 0, 0]	n/a	0	1	0	n/a	n/a	0.0	0	0	0	PAL2	0	R1130M
508.454	3.362	283200	REC_EVENT	1.655	n/a	ROOM	DUCK	5	5	ROOM	DUCK	1	3	[0, 0, 0]	n/a	0	1	0	n/a	n/a	0.0	0	0	0	PAL2	0	R1130M
511.816	0.017	284881	REC_END	n/a	n/a	n/a	n/a	5	-999	n/a	n/a	-999	3	[0, 0, 0]	n/a	0	1	0	n/a	n/a	0.0	0	0	0	PAL2	0	R1130M
511.833	0.25	284889	TEST_ORIENT	n/a	n/a	VAN	SKY	4	6	SKY	n/a	0	3	[0, 0, 0]	n/a	0	1	0	n/a	n/a	0.0	0	0	0	PAL2	0	R1130M
512.8	4.0	285373	TEST_PROBE	n/a	wordpools/wordpool_EN.txt	VAN	SKY	4	6	SKY	n/a	0	3	[0, 0, 0]	n/a	0	1	0	n/a	n/a	0.0	0	0	0	PAL2	0	R1130M
512.8	5.017	285373	REC_START	n/a	n/a	n/a	n/a	4	-999	n/a	n/a	0	3	[0, 0, 0]	n/a	0	1	0	n/a	n/a	0.0	0	0	0	PAL2	0	R1130M
517.817	0.004	287881	REC_END	n/a	n/a	n/a	n/a	4	-999	n/a	n/a	-999	3	[0, 0, 0]	n/a	0	1	0	n/a	n/a	0.0	0	0	0	PAL2	0	R1130M
517.821	20.0	287883	REC_EVENT	5.021	n/a	VAN	SKY	4	6	SKY	<>	0	3	[0, 0, 0]	n/a	0	1	0	n/a	n/a	0.0	0	0	0	PAL2	0	R1130M
537.821	10.453	297883	ENCODING_START	n/a	n/a	n/a	n/a	0	-999	n/a	n/a	-999	4	[0, 0, 0]	n/a	0	0	0	n/a	n/a	0.0	0	0	0	PAL2	0	R1130M
548.274	0.25	303109	STUDY_ORIENT	n/a	n/a	SEAT	BANK	1	5	SEAT	n/a	0	4	[0, 0, 0]	n/a	0	0	0	n/a	n/a	0.0	0	0	0	PAL2	0	R1130M
549.191	4.0	303567	STUDY_PAIR	n/a	wordpools/wordpool_EN.txt	SEAT	BANK	1	5	SEAT	n/a	0	4	[0, 0, 0]	n/a	0	0	0	n/a	n/a	0.0	0	0	0	PAL2	0	R1130M
554.225	0.25	306084	STUDY_ORIENT	n/a	n/a	KEY	SWAMP	2	6	SWAMP	POND	0	4	[0, 0, 0]	n/a	0	0	0	n/a	n/a	0.0	0	0	0	PAL2	0	R1130M
555.075	4.0	306509	STUDY_PAIR	n/a	wordpools/wordpool_EN.txt	KEY	SWAMP	2	6	SWAMP	POND	0	4	[0, 0, 0]	n/a	0	0	0	n/a	n/a	0.0	0	0	0	PAL2	0	R1130M
560.093	0.25	309018	STUDY_ORIENT	n/a	n/a	PALM	NET	3	3	PALM	n/a	0	4	[0, 0, 0]	n/a	0	0	0	n/a	n/a	0.0	0	0	0	PAL2	0	R1130M
560.91	4.0	309427	STUDY_PAIR	n/a	wordpools/wordpool_EN.txt	PALM	NET	3	3	PALM	n/a	0	4	[0, 0, 0]	n/a	0	0	0	n/a	n/a	0.0	0	0	0	PAL2	0	R1130M
565.944	0.25	311943	STUDY_ORIENT	n/a	n/a	SHIP	FOOT	4	2	SHIP	n/a	0	4	[0, 0, 0]	n/a	0	0	0	n/a	n/a	0.0	0	0	0	PAL2	0	R1130M
566.861	4.0	312402	STUDY_PAIR	n/a	wordpools/wordpool_EN.txt	SHIP	FOOT	4	2	SHIP	n/a	0	4	[0, 0, 0]	n/a	0	0	0	n/a	n/a	0.0	0	0	0	PAL2	0	R1130M
571.895	0.25	314919	STUDY_ORIENT	n/a	n/a	TOAD	INK	5	1	INK	n/a	0	4	[0, 0, 0]	n/a	0	0	0	n/a	n/a	0.0	0	0	0	PAL2	0	R1130M
572.695	4.0	315319	STUDY_PAIR	n/a	wordpools/wordpool_EN.txt	TOAD	INK	5	1	INK	n/a	0	4	[0, 0, 0]	n/a	0	0	0	n/a	n/a	0.0	0	0	0	PAL2	0	R1130M
577.713	0.25	317828	STUDY_ORIENT	n/a	n/a	SHEEP	HOSE	6	4	HOSE	n/a	0	4	[0, 0, 0]	n/a	0	0	0	n/a	n/a	0.0	0	0	0	PAL2	0	R1130M
578.713	4.0	318328	STUDY_PAIR	n/a	wordpools/wordpool_EN.txt	SHEEP	HOSE	6	4	HOSE	n/a	0	4	[0, 0, 0]	n/a	0	0	0	n/a	n/a	0.0	0	0	0	PAL2	0	R1130M
582.714	1.0	320328	START	n/a	n/a	n/a	n/a	-999	-999	n/a	n/a	-999	4	[-999, -999, -999]	n/a	0	0	0	n/a	n/a	0.0	0	0	0	PAL2	0	R1130M
583.714	0.017	320828	MATH_START	n/a	n/a	n/a	n/a	-999	-999	n/a	n/a	-999	4	[0, 0, 0]	n/a	0	0	0	n/a	n/a	0.0	0	0	0	PAL2	0	R1130M
583.731	9.985	320836	PROB	9.954	n/a	n/a	n/a	-999	-999	n/a	n/a	-999	4	[9, 3, 4]	16	0	0	0	n/a	n/a	0.0	0	0	0	PAL2	0	R1130M
593.716	8.252	325829	PROB	8.233	n/a	n/a	n/a	-999	-999	n/a	n/a	-999	4	[4, 4, 9]	17	0	0	0	n/a	n/a	0.0	0	0	0	PAL2	0	R1130M
601.968	8.373	329954	PROB	8.373	n/a	n/a	n/a	-999	-999	n/a	n/a	-999	4	[8, 2, 6]	16	0	0	0	n/a	n/a	0.0	0	0	0	PAL2	0	R1130M
610.341	0.012	334141	STOP	n/a	n/a	n/a	n/a	-999	-999	n/a	n/a	-999	4	[-999, -999, -999]	n/a	0	0	0	n/a	n/a	0.0	0	0	0	PAL2	0	R1130M
610.353	0.0	334147	MATH_END	n/a	n/a	n/a	n/a	-999	-999	n/a	n/a	-999	4	[0, 0, 0]	n/a	0	0	0	n/a	n/a	0.0	0	0	0	PAL2	0	R1130M
610.353	0.016	334147	TEST_START	n/a	n/a	n/a	n/a	-999	-999	n/a	n/a	-999	4	[0, 0, 0]	n/a	0	0	0	n/a	n/a	0.0	0	0	0	PAL2	0	R1130M
610.369	0.25	334155	TEST_ORIENT	n/a	n/a	TOAD	INK	5	1	INK	n/a	0	4	[0, 0, 0]	n/a	0	0	0	n/a	n/a	0.0	0	0	0	PAL2	0	R1130M
611.17	4.0	334555	TEST_PROBE	n/a	wordpools/wordpool_EN.txt	TOAD	INK	5	1	INK	n/a	0	4	[0, 0, 0]	n/a	0	0	0	n/a	n/a	0.0	0	0	0	PAL2	0	R1130M
611.17	5.015	334555	REC_START	n/a	n/a	n/a	n/a	5	-999	n/a	n/a	0	4	[0, 0, 0]	n/a	0	0	0	n/a	n/a	0.0	0	0	0	PAL2	0	R1130M
616.185	0.002	337063	REC_EVENT	5.015	n/a	TOAD	INK	5	1	INK	<>	0	4	[0, 0, 0]	n/a	0	0	0	n/a	n/a	0.0	0	0	0	PAL2	0	R1130M
616.187	0.017	337064	REC_END	n/a	n/a	n/a	n/a	5	-999	n/a	n/a	-999	4	[0, 0, 0]	n/a	0	0	0	n/a	n/a	0.0	0	0	0	PAL2	0	R1130M
616.204	0.25	337072	TEST_ORIENT	n/a	n/a	SHIP	FOOT	4	2	SHIP	n/a	0	4	[0, 0, 0]	n/a	0	0	0	n/a	n/a	0.0	0	0	0	PAL2	0	R1130M
617.054	4.0	337497	TEST_PROBE	n/a	wordpools/wordpool_EN.txt	SHIP	FOOT	4	2	SHIP	n/a	0	4	[0, 0, 0]	n/a	0	0	0	n/a	n/a	0.0	0	0	0	PAL2	0	R1130M
617.054	5.015	337497	REC_START	n/a	n/a	n/a	n/a	4	-999	n/a	n/a	0	4	[0, 0, 0]	n/a	0	0	0	n/a	n/a	0.0	0	0	0	PAL2	0	R1130M
622.069	0.003	340004	REC_EVENT	5.015	n/a	SHIP	FOOT	4	2	SHIP	<>	0	4	[0, 0, 0]	n/a	0	0	0	n/a	n/a	0.0	0	0	0	PAL2	0	R1130M
622.072	0.016	340006	REC_END	n/a	n/a	n/a	n/a	4	-999	n/a	n/a	-999	4	[0, 0, 0]	n/a	0	0	0	n/a	n/a	0.0	0	0	0	PAL2	0	R1130M
622.088	0.25	340014	TEST_ORIENT	n/a	n/a	PALM	NET	3	3	PALM	n/a	0	4	[0, 0, 0]	n/a	0	0	0	n/a	n/a	0.0	0	0	0	PAL2	0	R1130M
623.122	4.0	340531	TEST_PROBE	n/a	wordpools/wordpool_EN.txt	PALM	NET	3	3	PALM	n/a	0	4	[0, 0, 0]	n/a	0	0	0	n/a	n/a	0.0	0	0	0	PAL2	0	R1130M
623.123	5.015	340531	REC_START	n/a	n/a	n/a	n/a	3	-999	n/a	n/a	0	4	[0, 0, 0]	n/a	0	0	0	n/a	n/a	0.0	0	0	0	PAL2	0	R1130M
628.138	0.001	343039	REC_EVENT	5.015	n/a	PALM	NET	3	3	PALM	<>	0	4	[0, 0, 0]	n/a	0	0	0	n/a	n/a	0.0	0	0	0	PAL2	0	R1130M
628.139	0.017	343039	REC_END	n/a	n/a	n/a	n/a	3	-999	n/a	n/a	-999	4	[0, 0, 0]	n/a	0	0	0	n/a	n/a	0.0	0	0	0	PAL2	0	R1130M
628.156	0.25	343048	TEST_ORIENT	n/a	n/a	SHEEP	HOSE	6	4	HOSE	n/a	0	4	[0, 0, 0]	n/a	0	0	0	n/a	n/a	0.0	0	0	0	PAL2	0	R1130M
629.023	4.0	343481	TEST_PROBE	n/a	wordpools/wordpool_EN.txt	SHEEP	HOSE	6	4	HOSE	n/a	0	4	[0, 0, 0]	n/a	0	0	0	n/a	n/a	0.0	0	0	0	PAL2	0	R1130M
629.023	0.0	343481	REC_START	n/a	n/a	n/a	n/a	6	-999	n/a	n/a	0	4	[0, 0, 0]	n/a	0	0	0	n/a	n/a	0.0	0	0	0	PAL2	0	R1130M
629.023	5.018	343481	REC_EVENT	0.0	n/a	SHEEP	HOSE	6	4	HOSE	<>	0	4	[0, 0, 0]	n/a	0	0	0	n/a	n/a	0.0	0	0	0	PAL2	0	R1130M
634.041	0.016	345990	REC_END	n/a	n/a	n/a	n/a	6	-999	n/a	n/a	-999	4	[0, 0, 0]	n/a	0	0	0	n/a	n/a	0.0	0	0	0	PAL2	0	R1130M
634.057	0.25	345998	TEST_ORIENT	n/a	n/a	SEAT	BANK	1	5	SEAT	n/a	0	4	[0, 0, 0]	n/a	0	0	0	n/a	n/a	0.0	0	0	0	PAL2	0	R1130M
634.891	4.0	346415	TEST_PROBE	n/a	wordpools/wordpool_EN.txt	SEAT	BANK	1	5	SEAT	n/a	0	4	[0, 0, 0]	n/a	0	0	0	n/a	n/a	0.0	0	0	0	PAL2	0	R1130M
634.891	5.015	346415	REC_START	n/a	n/a	n/a	n/a	1	-999	n/a	n/a	0	4	[0, 0, 0]	n/a	0	0	0	n/a	n/a	0.0	0	0	0	PAL2	0	R1130M
639.906	0.002	348922	REC_EVENT	5.015	n/a	SEAT	BANK	1	5	SEAT	<>	0	4	[0, 0, 0]	n/a	0	0	0	n/a	n/a	0.0	0	0	0	PAL2	0	R1130M
639.908	0.017	348923	REC_END	n/a	n/a	n/a	n/a	1	-999	n/a	n/a	-999	4	[0, 0, 0]	n/a	0	0	0	n/a	n/a	0.0	0	0	0	PAL2	0	R1130M
639.925	0.25	348932	TEST_ORIENT	n/a	n/a	KEY	SWAMP	2	6	SWAMP	POND	0	4	[0, 0, 0]	n/a	0	0	0	n/a	n/a	0.0	0	0	0	PAL2	0	R1130M
640.892	4.0	349415	TEST_PROBE	n/a	wordpools/wordpool_EN.txt	KEY	SWAMP	2	6	SWAMP	POND	0	4	[0, 0, 0]	n/a	0	0	0	n/a	n/a	0.0	0	0	0	PAL2	0	R1130M
640.893	1.829	349416	REC_START	n/a	n/a	n/a	n/a	2	-999	n/a	POND	0	4	[0, 0, 0]	n/a	0	0	0	n/a	n/a	0.0	0	0	0	PAL2	0	R1130M
642.722	3.171	350330	REC_EVENT	1.829	n/a	KEY	SWAMP	2	6	SWAMP	POND	0	4	[0, 0, 0]	n/a	0	0	0	n/a	n/a	0.0	0	0	0	PAL2	0	R1130M
645.893	25.216	351916	REC_END	n/a	n/a	n/a	n/a	2	-999	n/a	n/a	-999	4	[0, 0, 0]	n/a	0	0	0	n/a	n/a	0.0	0	0	0	PAL2	0	R1130M
671.109	10.441	364523	ENCODING_START	n/a	n/a	n/a	n/a	0	-999	n/a	n/a	-999	5	[0, 0, 0]	n/a	0	1	0	n/a	n/a	0.0	0	0	0	PAL2	0	R1130M
681.55	0.25	369743	STUDY_ORIENT	n/a	n/a	TEA	TRASH	1	5	TEA	n/a	0	5	[0, 0, 0]	n/a	0	1	0	n/a	n/a	0.0	0	0	0	PAL2	0	R1130M
682.417	4.0	370177	STUDY_PAIR	n/a	wordpools/wordpool_EN.txt	TEA	TRASH	1	5	TEA	n/a	0	5	[0, 0, 0]	n/a	0	1	0	n/a	n/a	0.0	0	0	0	PAL2	0	R1130M
687.451	0.25	372694	STUDY_ORIENT	n/a	n/a	DIME	MAP	2	6	MAP	n/a	0	5	[0, 0, 0]	n/a	0	1	0	n/a	n/a	0.0	0	0	0	PAL2	0	R1130M
688.385	4.0	373161	STUDY_PAIR	n/a	wordpools/wordpool_EN.txt	DIME	MAP	2	6	MAP	n/a	0	5	[0, 0, 0]	n/a	0	1	0	n/a	n/a	0.0	0	0	0	PAL2	0	R1130M
693.419	0.25	375677	STUDY_ORIENT	n/a	n/a	PANTS	BALL	3	1	PANTS	n/a	0	5	[0, 0, 0]	n/a	0	1	0	n/a	n/a	0.0	0	0	0	PAL2	0	R1130M
694.403	4.0	376169	STUDY_PAIR	n/a	wordpools/wordpool_EN.txt	PANTS	BALL	3	1	PANTS	n/a	0	5	[0, 0, 0]	n/a	0	1	0	n/a	n/a	0.0	0	0	0	PAL2	0	R1130M
699.437	0.25	378686	STUDY_ORIENT	n/a	n/a	SPONGE	SOCK	4	4	SOCK	n/a	0	5	[0, 0, 0]	n/a	0	1	0	n/a	n/a	0.0	0	0	0	PAL2	0	R1130M
700.471	4.0	379203	STUDY_PAIR	n/a	wordpools/wordpool_EN.txt	SPONGE	SOCK	4	4	SOCK	n/a	0	5	[0, 0, 0]	n/a	0	1	0	n/a	n/a	0.0	0	0	0	PAL2	0	R1130M
705.505	0.25	381720	STUDY_ORIENT	n/a	n/a	JAIL	COUCH	5	3	COUCH	n/a	0	5	[0, 0, 0]	n/a	0	1	0	n/a	n/a	0.0	0	0	0	PAL2	0	R1130M
706.522	4.0	382229	STUDY_PAIR	n/a	wordpools/wordpool_EN.txt	JAIL	COUCH	5	3	COUCH	n/a	0	5	[0, 0, 0]	n/a	0	1	0	n/a	n/a	0.0	0	0	0	PAL2	0	R1130M
711.556	0.25	384745	STUDY_ORIENT	n/a	n/a	SPOON	PET	6	2	SPOON	n/a	0	5	[0, 0, 0]	n/a	0	1	0	n/a	n/a	0.0	0	0	0	PAL2	0	R1130M
712.356	4.0	385145	STUDY_PAIR	n/a	wordpools/wordpool_EN.txt	SPOON	PET	6	2	SPOON	n/a	0	5	[0, 0, 0]	n/a	0	1	0	n/a	n/a	0.0	0	0	0	PAL2	0	R1130M
716.357	1.0	387146	START	n/a	n/a	n/a	n/a	-999	-999	n/a	n/a	-999	5	[-999, -999, -999]	n/a	0	1	0	n/a	n/a	0.0	0	0	0	PAL2	0	R1130M
717.357	0.017	387646	MATH_START	n/a	n/a	n/a	n/a	-999	-999	n/a	n/a	-999	5	[0, 0, 0]	n/a	0	1	0	n/a	n/a	0.0	0	0	0	PAL2	0	R1130M
717.374	24.047	387654	PROB	24.047	n/a	n/a	n/a	-999	-999	n/a	n/a	-999	5	[9, 8, 9]	26	0	1	0	n/a	n/a	0.0	0	0	0	PAL2	0	R1130M
741.421	0.008	399677	STOP	n/a	n/a	n/a	n/a	-999	-999	n/a	n/a	-999	5	[-999, -999, -999]	n/a	0	1	0	n/a	n/a	0.0	0	0	0	PAL2	0	R1130M
741.429	0.0	399681	MATH_END	n/a	n/a	n/a	n/a	-999	-999	n/a	n/a	-999	5	[0, 0, 0]	n/a	0	1	0	n/a	n/a	0.0	0	0	0	PAL2	0	R1130M
741.429	0.017	399681	TEST_START	n/a	n/a	n/a	n/a	-999	-999	n/a	n/a	-999	5	[0, 0, 0]	n/a	0	1	0	n/a	n/a	0.0	0	0	0	PAL2	0	R1130M
741.446	0.25	399690	TEST_ORIENT	n/a	n/a	PANTS	BALL	3	1	PANTS	n/a	0	5	[0, 0, 0]	n/a	0	1	0	n/a	n/a	0.0	0	0	0	PAL2	0	R1130M
742.346	4.0	400140	TEST_PROBE	n/a	wordpools/wordpool_EN.txt	PANTS	BALL	3	1	PANTS	n/a	0	5	[0, 0, 0]	n/a	0	1	0	n/a	n/a	0.0	0	0	0	PAL2	0	R1130M
742.346	0.0	400140	REC_START	n/a	n/a	n/a	n/a	3	-999	n/a	n/a	0	5	[0, 0, 0]	n/a	0	1	0	n/a	n/a	0.0	0	0	0	PAL2	0	R1130M
742.346	5.017	400140	REC_EVENT	0.0	n/a	PANTS	BALL	3	1	PANTS	<>	0	5	[0, 0, 0]	n/a	0	1	0	n/a	n/a	0.0	0	0	0	PAL2	0	R1130M
747.363	0.017	402648	REC_END	n/a	n/a	n/a	n/a	3	-999	n/a	n/a	-999	5	[0, 0, 0]	n/a	0	1	0	n/a	n/a	0.0	0	0	0	PAL2	0	R1130M
747.38	0.25	402656	TEST_ORIENT	n/a	n/a	SPOON	PET	6	2	SPOON	n/a	0	5	[0, 0, 0]	n/a	0	1	0	n/a	n/a	0.0	0	0	0	PAL2	0	R1130M
748.063	4.6	402998	STIM_ON	n/a	n/a	SPOON	PET	6	2	SPOON	n/a	0	5	[0, 0, 0]	n/a	1	1	4600	LFG15	LFG16	1000.0	50	230	300	PAL2	0	R1130M
748.28	4.0	403106	TEST_PROBE	n/a	wordpools/wordpool_EN.txt	SPOON	PET	6	2	SPOON	n/a	0	5	[0, 0, 0]	n/a	1	1	4600	LFG15	LFG16	1000.0	50	230	300	PAL2	0	R1130M
748.281	0.0	403107	REC_START	n/a	n/a	n/a	n/a	6	-999	n/a	n/a	0	5	[0, 0, 0]	n/a	1	1	4600	LFG15	LFG16	1000.0	50	230	300	PAL2	0	R1130M
748.281	5.01	403107	REC_EVENT	0.0	n/a	SPOON	PET	6	2	SPOON	<>	0	5	[0, 0, 0]	n/a	1	1	4600	LFG15	LFG16	1000.0	50	230	300	PAL2	0	R1130M
753.291	0.024	405612	REC_END	n/a	n/a	n/a	n/a	6	-999	n/a	n/a	-999	5	[0, 0, 0]	n/a	0	1	0	n/a	n/a	0.0	0	0	0	PAL2	0	R1130M
753.315	0.25	405624	TEST_ORIENT	n/a	n/a	JAIL	COUCH	5	3	COUCH	n/a	0	5	[0, 0, 0]	n/a	0	1	0	n/a	n/a	0.0	0	0	0	PAL2	0	R1130M
754.115	4.0	406024	TEST_PROBE	n/a	wordpools/wordpool_EN.txt	JAIL	COUCH	5	3	COUCH	n/a	0	5	[0, 0, 0]	n/a	0	1	0	n/a	n/a	0.0	0	0	0	PAL2	0	R1130M
754.115	0.0	406024	REC_START	n/a	n/a	n/a	n/a	5	-999	n/a	n/a	0	5	[0, 0, 0]	n/a	0	1	0	n/a	n/a	0.0	0	0	0	PAL2	0	R1130M
754.115	5.017	406024	REC_EVENT	0.0	n/a	JAIL	COUCH	5	3	COUCH	<>	0	5	[0, 0, 0]	n/a	0	1	0	n/a	n/a	0.0	0	0	0	PAL2	0	R1130M
759.132	0.017	408532	REC_END	n/a	n/a	n/a	n/a	5	-999	n/a	n/a	-999	5	[0, 0, 0]	n/a	0	1	0	n/a	n/a	0.0	0	0	0	PAL2	0	R1130M
759.149	0.25	408541	TEST_ORIENT	n/a	n/a	SPONGE	SOCK	4	4	SOCK	n/a	0	5	[0, 0, 0]	n/a	0	1	0	n/a	n/a	0.0	0	0	0	PAL2	0	R1130M
759.863	4.6	408898	STIM_ON	n/a	n/a	SPONGE	SOCK	4	4	SOCK	n/a	0	5	[0, 0, 0]	n/a	1	1	4600	LFG15	LFG16	1000.0	50	230	300	PAL2	0	R1130M
760.066	0.0	408999	REC_EVENT	0.0	n/a	SPONGE	SOCK	4	4	SOCK	<>	0	5	[0, 0, 0]	n/a	1	1	4600	LFG15	LFG16	1000.0	50	230	300	PAL2	0	R1130M
760.066	0.0	408999	REC_START	n/a	n/a	n/a	n/a	4	-999	n/a	n/a	0	5	[0, 0, 0]	n/a	1	1	4600	LFG15	LFG16	1000.0	50	230	300	PAL2	0	R1130M
760.066	4.0	408999	TEST_PROBE	n/a	wordpools/wordpool_EN.txt	SPONGE	SOCK	4	4	SOCK	n/a	0	5	[0, 0, 0]	n/a	1	1	4600	LFG15	LFG16	1000.0	50	230	300	PAL2	0	R1130M
765.083	0.017	411507	REC_END	n/a	n/a	n/a	n/a	4	-999	n/a	n/a	-999	5	[0, 0, 0]	n/a	0	1	0	n/a	n/a	0.0	0	0	0	PAL2	0	R1130M
765.1	0.25	411516	TEST_ORIENT	n/a	n/a	TEA	TRASH	1	5	TEA	n/a	0	5	[0, 0, 0]	n/a	0	1	0	n/a	n/a	0.0	0	0	0	PAL2	0	R1130M
765.984	4.0	411958	TEST_PROBE	n/a	wordpools/wordpool_EN.txt	TEA	TRASH	1	5	TEA	n/a	0	5	[0, 0, 0]	n/a	0	1	0	n/a	n/a	0.0	0	0	0	PAL2	0	R1130M
765.985	0.0	411958	REC_START	n/a	n/a	n/a	n/a	1	-999	n/a	n/a	0	5	[0, 0, 0]	n/a	0	1	0	n/a	n/a	0.0	0	0	0	PAL2	0	R1130M
765.985	5.026	411958	REC_EVENT	0.0	n/a	TEA	TRASH	1	5	TEA	<>	0	5	[0, 0, 0]	n/a	0	1	0	n/a	n/a	0.0	0	0	0	PAL2	0	R1130M
771.011	0.024	414471	REC_END	n/a	n/a	n/a	n/a	1	-999	n/a	n/a	-999	5	[0, 0, 0]	n/a	0	1	0	n/a	n/a	0.0	0	0	0	PAL2	0	R1130M
771.035	0.25	414483	TEST_ORIENT	n/a	n/a	DIME	MAP	2	6	MAP	n/a	0	5	[0, 0, 0]	n/a	0	1	0	n/a	n/a	0.0	0	0	0	PAL2	0	R1130M
771.744	4.6	414838	STIM_ON	n/a	n/a	DIME	MAP	2	6	MAP	n/a	0	5	[0, 0, 0]	n/a	1	1	4600	LFG15	LFG16	1000.0	50	230	300	PAL2	0	R1130M
771.952	0.0	414942	REC_EVENT	0.0	n/a	DIME	MAP	2	6	MAP	<>	0	5	[0, 0, 0]	n/a	1	1	4600	LFG15	LFG16	1000.0	50	230	300	PAL2	0	R1130M
771.952	0.0	414942	REC_START	n/a	n/a	n/a	n/a	2	-999	n/a	n/a	0	5	[0, 0, 0]	n/a	1	1	4600	LFG15	LFG16	1000.0	50	230	300	PAL2	0	R1130M
771.952	4.0	414942	TEST_PROBE	n/a	wordpools/wordpool_EN.txt	DIME	MAP	2	6	MAP	n/a	0	5	[0, 0, 0]	n/a	1	1	4600	LFG15	LFG16	1000.0	50	230	300	PAL2	0	R1130M
776.969	12.756	417450	REC_END	n/a	n/a	n/a	n/a	2	-999	n/a	n/a	-999	5	[0, 0, 0]	n/a	0	1	0	n/a	n/a	0.0	0	0	0	PAL2	0	R1130M
789.725	10.449	423828	ENCODING_START	n/a	n/a	n/a	n/a	0	-999	n/a	n/a	-999	6	[0, 0, 0]	n/a	0	1	0	n/a	n/a	0.0	0	0	0	PAL2	0	R1130M
800.174	0.25	429052	STUDY_ORIENT	n/a	n/a	BOAT	HORSE	1	1	BOAT	n/a	0	6	[0, 0, 0]	n/a	0	1	0	n/a	n/a	0.0	0	0	0	PAL2	0	R1130M
800.991	4.0	429460	STUDY_PAIR	n/a	wordpools/wordpool_EN.txt	BOAT	HORSE	1	1	BOAT	n/a	0	6	[0, 0, 0]	n/a	0	1	0	n/a	n/a	0.0	0	0	0	PAL2	0	R1130M
806.025	0.25	431977	STUDY_ORIENT	n/a	n/a	TOY	BREAD	2	4	TOY	n/a	0	6	[0, 0, 0]	n/a	0	1	0	n/a	n/a	0.0	0	0	0	PAL2	0	R1130M
806.825	4.0	432377	STUDY_PAIR	n/a	wordpools/wordpool_EN.txt	TOY	BREAD	2	4	TOY	n/a	0	6	[0, 0, 0]	n/a	0	1	0	n/a	n/a	0.0	0	0	0	PAL2	0	R1130M
811.86	0.25	434895	STUDY_ORIENT	n/a	n/a	POLE	RIB	3	5	POLE	RIB	1	6	[0, 0, 0]	n/a	0	1	0	n/a	n/a	0.0	0	0	0	PAL2	0	R1130M
812.676	4.0	435303	STUDY_PAIR	n/a	wordpools/wordpool_EN.txt	POLE	RIB	3	5	POLE	RIB	1	6	[0, 0, 0]	n/a	0	1	0	n/a	n/a	0.0	0	0	0	PAL2	0	R1130M
817.694	0.25	437811	STUDY_ORIENT	n/a	n/a	WHEEL	STONE	4	6	STONE	n/a	0	6	[0, 0, 0]	n/a	0	1	0	n/a	n/a	0.0	0	0	0	PAL2	0	R1130M
818.678	4.0	438303	STUDY_PAIR	n/a	wordpools/wordpool_EN.txt	WHEEL	STONE	4	6	STONE	n/a	0	6	[0, 0, 0]	n/a	0	1	0	n/a	n/a	0.0	0	0	0	PAL2	0	R1130M
823.712	0.25	440820	STUDY_ORIENT	n/a	n/a	MUD	SAIL	5	3	SAIL	n/a	0	6	[0, 0, 0]	n/a	0	1	0	n/a	n/a	0.0	0	0	0	PAL2	0	R1130M
824.696	4.0	441312	STUDY_PAIR	n/a	wordpools/wordpool_EN.txt	MUD	SAIL	5	3	SAIL	n/a	0	6	[0, 0, 0]	n/a	0	1	0	n/a	n/a	0.0	0	0	0	PAL2	0	R1130M
829.73	0.25	443829	STUDY_ORIENT	n/a	n/a	DOLL	BEE	6	2	DOLL	n/a	0	6	[0, 0, 0]	n/a	0	1	0	n/a	n/a	0.0	0	0	0	PAL2	0	R1130M
830.713	4.0	444321	STUDY_PAIR	n/a	wordpools/wordpool_EN.txt	DOLL	BEE	6	2	DOLL	n/a	0	6	[0, 0, 0]	n/a	0	1	0	n/a	n/a	0.0	0	0	0	PAL2	0	R1130M
834.714	1.0	446321	START	n/a	n/a	n/a	n/a	-999	-999	n/a	n/a	-999	6	[-999, -999, -999]	n/a	0	1	0	n/a	n/a	0.0	0	0	0	PAL2	0	R1130M
835.714	0.017	446821	MATH_START	n/a	n/a	n/a	n/a	-999	-999	n/a	n/a	-999	6	[0, 0, 0]	n/a	0	1	0	n/a	n/a	0.0	0	0	0	PAL2	0	R1130M
835.731	11.769	446829	PROB	11.738	n/a	n/a	n/a	-999	-999	n/a	n/a	-999	6	[6, 3, 8]	17	0	1	0	n/a	n/a	0.0	0	0	0	PAL2	0	R1130M
847.5	8.833	452714	PROB	8.833	n/a	n/a	n/a	-999	-999	n/a	n/a	-999	6	[2, 8, 1]	11	0	1	0	n/a	n/a	0.0	0	0	0	PAL2	0	R1130M
856.333	0.002	457130	STOP	n/a	n/a	n/a	n/a	-999	-999	n/a	n/a	-999	6	[-999, -999, -999]	n/a	0	1	0	n/a	n/a	0.0	0	0	0	PAL2	0	R1130M
856.335	0.0	457131	MATH_END	n/a	n/a	n/a	n/a	-999	-999	n/a	n/a	-999	6	[0, 0, 0]	n/a	0	1	0	n/a	n/a	0.0	0	0	0	PAL2	0	R1130M
856.335	0.017	457131	TEST_START	n/a	n/a	n/a	n/a	-999	-999	n/a	n/a	-999	6	[0, 0, 0]	n/a	0	1	0	n/a	n/a	0.0	0	0	0	PAL2	0	R1130M
856.352	0.25	457139	TEST_ORIENT	n/a	n/a	BOAT	HORSE	1	1	BOAT	n/a	0	6	[0, 0, 0]	n/a	0	1	0	n/a	n/a	0.0	0	0	0	PAL2	0	R1130M
857.075	4.6	457501	STIM_ON	n/a	n/a	BOAT	HORSE	1	1	BOAT	n/a	0	6	[0, 0, 0]	n/a	1	1	4600	LFG15	LFG16	1000.0	50	230	300	PAL2	0	R1130M
857.285	4.0	457606	TEST_PROBE	n/a	wordpools/wordpool_EN.txt	BOAT	HORSE	1	1	BOAT	n/a	0	6	[0, 0, 0]	n/a	1	1	4600	LFG15	LFG16	1000.0	50	230	300	PAL2	0	R1130M
857.286	0.0	457606	REC_EVENT	0.0	n/a	BOAT	HORSE	1	1	BOAT	<>	0	6	[0, 0, 0]	n/a	1	1	4600	LFG15	LFG16	1000.0	50	230	300	PAL2	0	R1130M
857.286	5.011	457606	REC_START	n/a	n/a	n/a	n/a	1	-999	n/a	n/a	0	6	[0, 0, 0]	n/a	1	1	4600	LFG15	LFG16	1000.0	50	230	300	PAL2	0	R1130M
862.297	0.023	460112	REC_END	n/a	n/a	n/a	n/a	1	-999	n/a	n/a	-999	6	[0, 0, 0]	n/a	0	1	0	n/a	n/a	0.0	0	0	0	PAL2	0	R1130M
862.32	0.25	460123	TEST_ORIENT	n/a	n/a	DOLL	BEE	6	2	DOLL	n/a	0	6	[0, 0, 0]	n/a	0	1	0	n/a	n/a	0.0	0	0	0	PAL2	0	R1130M
863.353	4.0	460640	TEST_PROBE	n/a	wordpools/wordpool_EN.txt	DOLL	BEE	6	2	DOLL	n/a	0	6	[0, 0, 0]	n/a	0	1	0	n/a	n/a	0.0	0	0	0	PAL2	0	R1130M
863.354	0.0	460640	REC_START	n/a	n/a	n/a	n/a	6	-999	n/a	n/a	0	6	[0, 0, 0]	n/a	0	1	0	n/a	n/a	0.0	0	0	0	PAL2	0	R1130M
863.354	5.0	460640	REC_EVENT	0.0	n/a	DOLL	BEE	6	2	DOLL	<>	0	6	[0, 0, 0]	n/a	0	1	0	n/a	n/a	0.0	0	0	0	PAL2	0	R1130M
868.354	0.017	463140	REC_END	n/a	n/a	n/a	n/a	6	-999	n/a	n/a	-999	6	[0, 0, 0]	n/a	0	1	0	n/a	n/a	0.0	0	0	0	PAL2	0	R1130M
868.371	0.25	463149	TEST_ORIENT	n/a	n/a	MUD	SAIL	5	3	SAIL	n/a	0	6	[0, 0, 0]	n/a	0	1	0	n/a	n/a	0.0	0	0	0	PAL2	0	R1130M
869.114	4.6	463520	STIM_ON	n/a	n/a	MUD	SAIL	5	3	SAIL	n/a	0	6	[0, 0, 0]	n/a	1	1	4600	LFG15	LFG16	1000.0	50	230	300	PAL2	0	R1130M
869.321	0.0	463624	REC_START	n/a	n/a	n/a	n/a	5	-999	n/a	n/a	0	6	[0, 0, 0]	n/a	1	1	4600	LFG15	LFG16	1000.0	50	230	300	PAL2	0	R1130M
869.321	4.0	463624	TEST_PROBE	n/a	wordpools/wordpool_EN.txt	MUD	SAIL	5	3	SAIL	n/a	0	6	[0, 0, 0]	n/a	1	1	4600	LFG15	LFG16	1000.0	50	230	300	PAL2	0	R1130M
869.321	5.028	463624	REC_EVENT	0.0	n/a	MUD	SAIL	5	3	SAIL	<>	0	6	[0, 0, 0]	n/a	1	1	4600	LFG15	LFG16	1000.0	50	230	300	PAL2	0	R1130M
874.349	0.023	466137	REC_END	n/a	n/a	n/a	n/a	5	-999	n/a	n/a	-999	6	[0, 0, 0]	n/a	0	1	0	n/a	n/a	0.0	0	0	0	PAL2	0	R1130M
874.372	0.25	466149	TEST_ORIENT	n/a	n/a	TOY	BREAD	2	4	TOY	n/a	0	6	[0, 0, 0]	n/a	0	1	0	n/a	n/a	0.0	0	0	0	PAL2	0	R1130M
875.256	4.0	466591	TEST_PROBE	n/a	wordpools/wordpool_EN.txt	TOY	BREAD	2	4	TOY	n/a	0	6	[0, 0, 0]	n/a	0	1	0	n/a	n/a	0.0	0	0	0	PAL2	0	R1130M
875.256	0.0	466591	REC_START	n/a	n/a	n/a	n/a	2	-999	n/a	n/a	0	6	[0, 0, 0]	n/a	0	1	0	n/a	n/a	0.0	0	0	0	PAL2	0	R1130M
875.256	5.017	466591	REC_EVENT	0.0	n/a	TOY	BREAD	2	4	TOY	<>	0	6	[0, 0, 0]	n/a	0	1	0	n/a	n/a	0.0	0	0	0	PAL2	0	R1130M
880.273	0.017	469099	REC_END	n/a	n/a	n/a	n/a	2	-999	n/a	n/a	-999	6	[0, 0, 0]	n/a	0	1	0	n/a	n/a	0.0	0	0	0	PAL2	0	R1130M
880.29	0.25	469108	TEST_ORIENT	n/a	n/a	POLE	RIB	3	5	POLE	RIB	1	6	[0, 0, 0]	n/a	0	1	0	n/a	n/a	0.0	0	0	0	PAL2	0	R1130M
880.961	4.6	469443	STIM_ON	n/a	n/a	POLE	RIB	3	5	POLE	RIB	1	6	[0, 0, 0]	n/a	1	1	4600	LFG15	LFG16	1000.0	50	230	300	PAL2	0	R1130M
881.173	4.0	469549	TEST_PROBE	n/a	wordpools/wordpool_EN.txt	POLE	RIB	3	5	POLE	RIB	1	6	[0, 0, 0]	n/a	1	1	4600	LFG15	LFG16	1000.0	50	230	300	PAL2	0	R1130M
881.174	3.686	469550	REC_START	n/a	n/a	n/a	n/a	3	-999	n/a	RIB	1	6	[0, 0, 0]	n/a	1	1	4600	LFG15	LFG16	1000.0	50	230	300	PAL2	0	R1130M
884.86	1.325	471393	REC_EVENT	3.686	n/a	POLE	RIB	3	5	POLE	RIB	1	6	[0, 0, 0]	n/a	1	1	4600	LFG15	LFG16	1000.0	50	230	300	PAL2	0	R1130M
886.185	0.023	472055	REC_END	n/a	n/a	n/a	n/a	3	-999	n/a	n/a	-999	6	[0, 0, 0]	n/a	0	1	0	n/a	n/a	0.0	0	0	0	PAL2	0	R1130M
886.208	0.25	472067	TEST_ORIENT	n/a	n/a	WHEEL	STONE	4	6	STONE	n/a	0	6	[0, 0, 0]	n/a	0	1	0	n/a	n/a	0.0	0	0	0	PAL2	0	R1130M
887.158	4.0	472542	TEST_PROBE	n/a	wordpools/wordpool_EN.txt	WHEEL	STONE	4	6	STONE	n/a	0	6	[0, 0, 0]	n/a	0	1	0	n/a	n/a	0.0	0	0	0	PAL2	0	R1130M
887.158	0.0	472542	REC_START	n/a	n/a	n/a	n/a	4	-999	n/a	n/a	0	6	[0, 0, 0]	n/a	0	1	0	n/a	n/a	0.0	0	0	0	PAL2	0	R1130M
887.158	5.017	472542	REC_EVENT	0.0	n/a	WHEEL	STONE	4	6	STONE	<>	0	6	[0, 0, 0]	n/a	0	1	0	n/a	n/a	0.0	0	0	0	PAL2	0	R1130M
892.175	16.502	475050	REC_END	n/a	n/a	n/a	n/a	4	-999	n/a	n/a	-999	6	[0, 0, 0]	n/a	0	1	0	n/a	n/a	0.0	0	0	0	PAL2	0	R1130M
908.677	10.454	483300	ENCODING_START	n/a	n/a	n/a	n/a	0	-999	n/a	n/a	-999	7	[0, 0, 0]	n/a	0	1	0	n/a	n/a	0.0	0	0	0	PAL2	0	R1130M
919.131	0.25	488527	STUDY_ORIENT	n/a	n/a	SIGN	BROOM	1	1	SIGN	n/a	0	7	[0, 0, 0]	n/a	0	1	0	n/a	n/a	0.0	0	0	0	PAL2	0	R1130M
920.165	4.0	489044	STUDY_PAIR	n/a	wordpools/wordpool_EN.txt	SIGN	BROOM	1	1	SIGN	n/a	0	7	[0, 0, 0]	n/a	0	1	0	n/a	n/a	0.0	0	0	0	PAL2	0	R1130M
925.199	0.25	491561	STUDY_ORIENT	n/a	n/a	ROSE	PLANT	2	2	ROSE	n/a	0	7	[0, 0, 0]	n/a	0	1	0	n/a	n/a	0.0	0	0	0	PAL2	0	R1130M
926.149	4.0	492036	STUDY_PAIR	n/a	wordpools/wordpool_EN.txt	ROSE	PLANT	2	2	ROSE	n/a	0	7	[0, 0, 0]	n/a	0	1	0	n/a	n/a	0.0	0	0	0	PAL2	0	R1130M
931.167	0.25	494545	STUDY_ORIENT	n/a	n/a	TOE	GUARD	3	5	GUARD	TRUCK	0	7	[0, 0, 0]	n/a	0	1	0	n/a	n/a	0.0	0	0	0	PAL2	0	R1130M
931.967	4.0	494945	STUDY_PAIR	n/a	wordpools/wordpool_EN.txt	TOE	GUARD	3	5	GUARD	TRUCK	0	7	[0, 0, 0]	n/a	0	1	0	n/a	n/a	0.0	0	0	0	PAL2	0	R1130M
937.001	0.25	497462	STUDY_ORIENT	n/a	n/a	PURSE	BOMB	4	6	BOMB	n/a	0	7	[0, 0, 0]	n/a	0	1	0	n/a	n/a	0.0	0	0	0	PAL2	0	R1130M
937.918	4.0	497920	STUDY_PAIR	n/a	wordpools/wordpool_EN.txt	PURSE	BOMB	4	6	BOMB	n/a	0	7	[0, 0, 0]	n/a	0	1	0	n/a	n/a	0.0	0	0	0	PAL2	0	R1130M
942.936	0.25	500429	STUDY_ORIENT	n/a	n/a	TRAY	TOOL	5	3	TRAY	n/a	0	7	[0, 0, 0]	n/a	0	1	0	n/a	n/a	0.0	0	0	0	PAL2	0	R1130M
943.786	4.0	500854	STUDY_PAIR	n/a	wordpools/wordpool_EN.txt	TRAY	TOOL	5	3	TRAY	n/a	0	7	[0, 0, 0]	n/a	0	1	0	n/a	n/a	0.0	0	0	0	PAL2	0	R1130M
948.82	0.25	503371	STUDY_ORIENT	n/a	n/a	BAND	SOUP	6	4	SOUP	n/a	0	7	[0, 0, 0]	n/a	0	1	0	n/a	n/a	0.0	0	0	0	PAL2	0	R1130M
949.654	4.0	503788	STUDY_PAIR	n/a	wordpools/wordpool_EN.txt	BAND	SOUP	6	4	SOUP	n/a	0	7	[0, 0, 0]	n/a	0	1	0	n/a	n/a	0.0	0	0	0	PAL2	0	R1130M
953.672	0.999	505797	START	n/a	n/a	n/a	n/a	-999	-999	n/a	n/a	-999	7	[-999, -999, -999]	n/a	0	1	0	n/a	n/a	0.0	0	0	0	PAL2	0	R1130M
954.671	0.017	506296	MATH_START	n/a	n/a	n/a	n/a	-999	-999	n/a	n/a	-999	7	[0, 0, 0]	n/a	0	1	0	n/a	n/a	0.0	0	0	0	PAL2	0	R1130M
954.688	7.152	506305	PROB	7.125	n/a	n/a	n/a	-999	-999	n/a	n/a	-999	7	[2, 8, 7]	17	0	1	0	n/a	n/a	0.0	0	0	0	PAL2	0	R1130M
961.84	8.235	509880	PROB	8.213	n/a	n/a	n/a	-999	-999	n/a	n/a	-999	7	[1, 3, 8]	12	0	1	0	n/a	n/a	0.0	0	0	0	PAL2	0	R1130M
970.075	12.474	513998	PROB	12.474	n/a	n/a	n/a	-999	-999	n/a	n/a	-999	7	[3, 9, 1]	13	0	1	0	n/a	n/a	0.0	0	0	0	PAL2	0	R1130M
982.549	0.011	520234	STOP	n/a	n/a	n/a	n/a	-999	-999	n/a	n/a	-999	7	[-999, -999, -999]	n/a	0	1	0	n/a	n/a	0.0	0	0	0	PAL2	0	R1130M
982.56	0.0	520240	MATH_END	n/a	n/a	n/a	n/a	-999	-999	n/a	n/a	-999	7	[0, 0, 0]	n/a	0	1	0	n/a	n/a	0.0	0	0	0	PAL2	0	R1130M
982.56	0.017	520240	TEST_START	n/a	n/a	n/a	n/a	-999	-999	n/a	n/a	-999	7	[0, 0, 0]	n/a	0	1	0	n/a	n/a	0.0	0	0	0	PAL2	0	R1130M
982.577	0.25	520248	TEST_ORIENT	n/a	n/a	SIGN	BROOM	1	1	SIGN	n/a	0	7	[0, 0, 0]	n/a	0	1	0	n/a	n/a	0.0	0	0	0	PAL2	0	R1130M
983.408	4.6	520664	STIM_ON	n/a	n/a	SIGN	BROOM	1	1	SIGN	n/a	0	7	[0, 0, 0]	n/a	1	1	4600	LFG15	LFG16	1000.0	50	230	300	PAL2	0	R1130M
983.609	4.0	520764	TEST_PROBE	n/a	wordpools/wordpool_EN.txt	SIGN	BROOM	1	1	SIGN	n/a	0	7	[0, 0, 0]	n/a	1	1	4600	LFG15	LFG16	1000.0	50	230	300	PAL2	0	R1130M
983.61	0.0	520765	REC_START	n/a	n/a	n/a	n/a	1	-999	n/a	n/a	0	7	[0, 0, 0]	n/a	1	1	4600	LFG15	LFG16	1000.0	50	230	300	PAL2	0	R1130M
983.61	5.01	520765	REC_EVENT	0.0	n/a	SIGN	BROOM	1	1	SIGN	<>	0	7	[0, 0, 0]	n/a	1	1	4600	LFG15	LFG16	1000.0	50	230	300	PAL2	0	R1130M
988.62	0.025	523270	REC_END	n/a	n/a	n/a	n/a	1	-999	n/a	n/a	-999	7	[0, 0, 0]	n/a	0	1	0	n/a	n/a	0.0	0	0	0	PAL2	0	R1130M
988.645	0.25	523282	TEST_ORIENT	n/a	n/a	ROSE	PLANT	2	2	ROSE	n/a	0	7	[0, 0, 0]	n/a	0	1	0	n/a	n/a	0.0	0	0	0	PAL2	0	R1130M
989.611	4.0	523765	TEST_PROBE	n/a	wordpools/wordpool_EN.txt	ROSE	PLANT	2	2	ROSE	n/a	0	7	[0, 0, 0]	n/a	0	1	0	n/a	n/a	0.0	0	0	0	PAL2	0	R1130M
989.611	0.0	523765	REC_START	n/a	n/a	n/a	n/a	2	-999	n/a	n/a	0	7	[0, 0, 0]	n/a	0	1	0	n/a	n/a	0.0	0	0	0	PAL2	0	R1130M
989.611	5.017	523765	REC_EVENT	0.0	n/a	ROSE	PLANT	2	2	ROSE	<>	0	7	[0, 0, 0]	n/a	0	1	0	n/a	n/a	0.0	0	0	0	PAL2	0	R1130M
994.628	0.018	526274	REC_END	n/a	n/a	n/a	n/a	2	-999	n/a	n/a	-999	7	[0, 0, 0]	n/a	0	1	0	n/a	n/a	0.0	0	0	0	PAL2	0	R1130M
994.646	0.25	526283	TEST_ORIENT	n/a	n/a	TRAY	TOOL	5	3	TRAY	n/a	0	7	[0, 0, 0]	n/a	0	1	0	n/a	n/a	0.0	0	0	0	PAL2	0	R1130M
995.341	4.6	526630	STIM_ON	n/a	n/a	TRAY	TOOL	5	3	TRAY	n/a	0	7	[0, 0, 0]	n/a	1	1	4600	LFG15	LFG16	1000.0	50	230	300	PAL2	0	R1130M
995.546	4.0	526733	TEST_PROBE	n/a	wordpools/wordpool_EN.txt	TRAY	TOOL	5	3	TRAY	n/a	0	7	[0, 0, 0]	n/a	1	1	4600	LFG15	LFG16	1000.0	50	230	300	PAL2	0	R1130M
995.547	0.0	526733	REC_START	n/a	n/a	n/a	n/a	5	-999	n/a	n/a	0	7	[0, 0, 0]	n/a	1	1	4600	LFG15	LFG16	1000.0	50	230	300	PAL2	0	R1130M
995.547	5.01	526733	REC_EVENT	0.0	n/a	TRAY	TOOL	5	3	TRAY	<>	0	7	[0, 0, 0]	n/a	1	1	4600	LFG15	LFG16	1000.0	50	230	300	PAL2	0	R1130M
1000.557	0.024	529238	REC_END	n/a	n/a	n/a	n/a	5	-999	n/a	n/a	-999	7	[0, 0, 0]	n/a	0	1	0	n/a	n/a	0.0	0	0	0	PAL2	0	R1130M
1000.581	0.25	529250	TEST_ORIENT	n/a	n/a	BAND	SOUP	6	4	SOUP	n/a	0	7	[0, 0, 0]	n/a	0	1	0	n/a	n/a	0.0	0	0	0	PAL2	0	R1130M
1001.414	4.0	529666	TEST_PROBE	n/a	wordpools/wordpool_EN.txt	BAND	SOUP	6	4	SOUP	n/a	0	7	[0, 0, 0]	n/a	0	1	0	n/a	n/a	0.0	0	0	0	PAL2	0	R1130M
1001.415	0.0	529667	REC_START	n/a	n/a	n/a	n/a	6	-999	n/a	n/a	0	7	[0, 0, 0]	n/a	0	1	0	n/a	n/a	0.0	0	0	0	PAL2	0	R1130M
1001.415	5.029	529667	REC_EVENT	0.0	n/a	BAND	SOUP	6	4	SOUP	<>	0	7	[0, 0, 0]	n/a	0	1	0	n/a	n/a	0.0	0	0	0	PAL2	0	R1130M
1006.444	0.021	532181	REC_END	n/a	n/a	n/a	n/a	6	-999	n/a	n/a	-999	7	[0, 0, 0]	n/a	0	1	0	n/a	n/a	0.0	0	0	0	PAL2	0	R1130M
1006.465	0.25	532192	TEST_ORIENT	n/a	n/a	TOE	GUARD	3	5	GUARD	TRUCK	0	7	[0, 0, 0]	n/a	0	1	0	n/a	n/a	0.0	0	0	0	PAL2	0	R1130M
1007.145	4.6	532532	STIM_ON	n/a	n/a	TOE	GUARD	3	5	GUARD	TRUCK	0	7	[0, 0, 0]	n/a	1	1	4600	LFG15	LFG16	1000.0	50	230	300	PAL2	0	R1130M
1007.349	4.0	532634	TEST_PROBE	n/a	wordpools/wordpool_EN.txt	TOE	GUARD	3	5	GUARD	TRUCK	0	7	[0, 0, 0]	n/a	1	1	4600	LFG15	LFG16	1000.0	50	230	300	PAL2	0	R1130M
1007.349	2.946	532634	REC_START	n/a	n/a	n/a	n/a	3	-999	n/a	TRUCK	0	7	[0, 0, 0]	n/a	1	1	4600	LFG15	LFG16	1000.0	50	230	300	PAL2	0	R1130M
1010.295	2.071	534107	REC_EVENT	2.946	n/a	TOE	GUARD	3	5	GUARD	TRUCK	0	7	[0, 0, 0]	n/a	1	1	4600	LFG15	LFG16	1000.0	50	230	300	PAL2	0	R1130M
1012.366	0.017	535142	REC_END	n/a	n/a	n/a	n/a	3	-999	n/a	n/a	-999	7	[0, 0, 0]	n/a	0	1	0	n/a	n/a	0.0	0	0	0	PAL2	0	R1130M
1012.383	0.25	535151	TEST_ORIENT	n/a	n/a	PURSE	BOMB	4	6	BOMB	n/a	0	7	[0, 0, 0]	n/a	0	1	0	n/a	n/a	0.0	0	0	0	PAL2	0	R1130M
1013.283	4.0	535601	TEST_PROBE	n/a	wordpools/wordpool_EN.txt	PURSE	BOMB	4	6	BOMB	n/a	0	7	[0, 0, 0]	n/a	0	1	0	n/a	n/a	0.0	0	0	0	PAL2	0	R1130M
1013.284	0.0	535601	REC_START	n/a	n/a	n/a	n/a	4	-999	n/a	n/a	0	7	[0, 0, 0]	n/a	0	1	0	n/a	n/a	0.0	0	0	0	PAL2	0	R1130M
1013.284	5.0	535601	REC_EVENT	0.0	n/a	PURSE	BOMB	4	6	BOMB	<>	0	7	[0, 0, 0]	n/a	0	1	0	n/a	n/a	0.0	0	0	0	PAL2	0	R1130M
1018.284	29.729	538101	REC_END	n/a	n/a	n/a	n/a	4	-999	n/a	n/a	-999	7	[0, 0, 0]	n/a	0	1	0	n/a	n/a	0.0	0	0	0	PAL2	0	R1130M
1048.013	10.446	552965	ENCODING_START	n/a	n/a	n/a	n/a	0	-999	n/a	n/a	-999	8	[0, 0, 0]	n/a	0	1	0	n/a	n/a	0.0	0	0	0	PAL2	0	R1130M
1058.459	0.25	558187	STUDY_ORIENT	n/a	n/a	ICE	OAR	1	1	ICE	n/a	0	8	[0, 0, 0]	n/a	0	1	0	n/a	n/a	0.0	0	0	0	PAL2	0	R1130M
1059.476	4.0	558696	STUDY_PAIR	n/a	wordpools/wordpool_EN.txt	ICE	OAR	1	1	ICE	n/a	0	8	[0, 0, 0]	n/a	0	1	0	n/a	n/a	0.0	0	0	0	PAL2	0	R1130M
1064.51	0.25	561213	STUDY_ORIENT	n/a	n/a	BRICK	MAT	2	4	BRICK	n/a	0	8	[0, 0, 0]	n/a	0	1	0	n/a	n/a	0.0	0	0	0	PAL2	0	R1130M
1065.493	4.0	561704	STUDY_PAIR	n/a	wordpools/wordpool_EN.txt	BRICK	MAT	2	4	BRICK	n/a	0	8	[0, 0, 0]	n/a	0	1	0	n/a	n/a	0.0	0	0	0	PAL2	0	R1130M
1070.511	0.25	564213	STUDY_ORIENT	n/a	n/a	BOX	MILK	3	3	MILK	n/a	0	8	[0, 0, 0]	n/a	0	1	0	n/a	n/a	0.0	0	0	0	PAL2	0	R1130M
1071.478	4.0	564696	STUDY_PAIR	n/a	wordpools/wordpool_EN.txt	BOX	MILK	3	3	MILK	n/a	0	8	[0, 0, 0]	n/a	0	1	0	n/a	n/a	0.0	0	0	0	PAL2	0	R1130M
1076.512	0.25	567213	STUDY_ORIENT	n/a	n/a	JUDGE	STOVE	4	2	STOVE	JUDGE	1	8	[0, 0, 0]	n/a	0	1	0	n/a	n/a	0.0	0	0	0	PAL2	0	R1130M
1077.546	4.0	567730	STUDY_PAIR	n/a	wordpools/wordpool_EN.txt	JUDGE	STOVE	4	2	STOVE	JUDGE	1	8	[0, 0, 0]	n/a	0	1	0	n/a	n/a	0.0	0	0	0	PAL2	0	R1130M
1082.58	0.25	570247	STUDY_ORIENT	n/a	n/a	MULE	POND	5	5	MULE	POND	1	8	[0, 0, 0]	n/a	0	1	0	n/a	n/a	0.0	0	0	0	PAL2	0	R1130M
1083.564	4.0	570739	STUDY_PAIR	n/a	wordpools/wordpool_EN.txt	MULE	POND	5	5	MULE	POND	1	8	[0, 0, 0]	n/a	0	1	0	n/a	n/a	0.0	0	0	0	PAL2	0	R1130M
1088.597	0.25	573255	STUDY_ORIENT	n/a	n/a	SKI	BEACH	6	6	SKI	BEACH	1	8	[0, 0, 0]	n/a	0	1	0	n/a	n/a	0.0	0	0	0	PAL2	0	R1130M
1089.365	4.0	573639	STUDY_PAIR	n/a	wordpools/wordpool_EN.txt	SKI	BEACH	6	6	SKI	BEACH	1	8	[0, 0, 0]	n/a	0	1	0	n/a	n/a	0.0	0	0	0	PAL2	0	R1130M
1093.383	0.999	575648	START	n/a	n/a	n/a	n/a	-999	-999	n/a	n/a	-999	8	[-999, -999, -999]	n/a	0	1	0	n/a	n/a	0.0	0	0	0	PAL2	0	R1130M
1094.382	0.017	576148	MATH_START	n/a	n/a	n/a	n/a	-999	-999	n/a	n/a	-999	8	[0, 0, 0]	n/a	0	1	0	n/a	n/a	0.0	0	0	0	PAL2	0	R1130M
1094.399	12.719	576156	PROB	12.686	n/a	n/a	n/a	-999	-999	n/a	n/a	-999	8	[6, 4, 6]	16	0	1	0	n/a	n/a	0.0	0	0	0	PAL2	0	R1130M
1107.118	6.839	582515	PROB	6.839	n/a	n/a	n/a	-999	-999	n/a	n/a	-999	8	[1, 9, 2]	12	0	1	0	n/a	n/a	0.0	0	0	0	PAL2	0	R1130M
1113.957	0.013	585935	STOP	n/a	n/a	n/a	n/a	-999	-999	n/a	n/a	-999	8	[-999, -999, -999]	n/a	0	1	0	n/a	n/a	0.0	0	0	0	PAL2	0	R1130M
1113.97	0.0	585941	MATH_END	n/a	n/a	n/a	n/a	-999	-999	n/a	n/a	-999	8	[0, 0, 0]	n/a	0	1	0	n/a	n/a	0.0	0	0	0	PAL2	0	R1130M
1113.97	0.017	585941	TEST_START	n/a	n/a	n/a	n/a	-999	-999	n/a	n/a	-999	8	[0, 0, 0]	n/a	0	1	0	n/a	n/a	0.0	0	0	0	PAL2	0	R1130M
1113.987	0.25	585950	TEST_ORIENT	n/a	n/a	ICE	OAR	1	1	ICE	n/a	0	8	[0, 0, 0]	n/a	0	1	0	n/a	n/a	0.0	0	0	0	PAL2	0	R1130M
1114.753	4.6	586333	STIM_ON	n/a	n/a	ICE	OAR	1	1	ICE	n/a	0	8	[0, 0, 0]	n/a	1	1	4600	LFG15	LFG16	1000.0	50	230	300	PAL2	0	R1130M
1114.97	4.0	586441	TEST_PROBE	n/a	wordpools/wordpool_EN.txt	ICE	OAR	1	1	ICE	n/a	0	8	[0, 0, 0]	n/a	1	1	4600	LFG15	LFG16	1000.0	50	230	300	PAL2	0	R1130M
1114.97	0.0	586441	REC_START	n/a	n/a	n/a	n/a	1	-999	n/a	n/a	0	8	[0, 0, 0]	n/a	1	1	4600	LFG15	LFG16	1000.0	50	230	300	PAL2	0	R1130M
1114.97	5.018	586441	REC_EVENT	0.0	n/a	ICE	OAR	1	1	ICE	<>	0	8	[0, 0, 0]	n/a	1	1	4600	LFG15	LFG16	1000.0	50	230	300	PAL2	0	R1130M
1119.988	0.016	588950	REC_END	n/a	n/a	n/a	n/a	1	-999	n/a	n/a	-999	8	[0, 0, 0]	n/a	0	1	0	n/a	n/a	0.0	0	0	0	PAL2	0	R1130M
1120.004	0.25	588958	TEST_ORIENT	n/a	n/a	JUDGE	STOVE	4	2	STOVE	JUDGE	1	8	[0, 0, 0]	n/a	0	1	0	n/a	n/a	0.0	0	0	0	PAL2	0	R1130M
1120.938	4.0	589425	TEST_PROBE	n/a	wordpools/wordpool_EN.txt	JUDGE	STOVE	4	2	STOVE	JUDGE	1	8	[0, 0, 0]	n/a	0	1	0	n/a	n/a	0.0	0	0	0	PAL2	0	R1130M
1120.938	2.735	589425	REC_START	n/a	n/a	n/a	n/a	4	-999	n/a	JUDGE	1	8	[0, 0, 0]	n/a	0	1	0	n/a	n/a	0.0	0	0	0	PAL2	0	R1130M
1123.673	2.282	590792	REC_EVENT	2.735	n/a	JUDGE	STOVE	4	2	STOVE	JUDGE	1	8	[0, 0, 0]	n/a	0	1	0	n/a	n/a	0.0	0	0	0	PAL2	0	R1130M
1125.955	0.017	591933	REC_END	n/a	n/a	n/a	n/a	4	-999	n/a	n/a	-999	8	[0, 0, 0]	n/a	0	1	0	n/a	n/a	0.0	0	0	0	PAL2	0	R1130M
1125.972	0.25	591942	TEST_ORIENT	n/a	n/a	BOX	MILK	3	3	MILK	n/a	0	8	[0, 0, 0]	n/a	0	1	0	n/a	n/a	0.0	0	0	0	PAL2	0	R1130M
1126.713	4.6	592312	STIM_ON	n/a	n/a	BOX	MILK	3	3	MILK	n/a	0	8	[0, 0, 0]	n/a	1	1	4600	LFG15	LFG16	1000.0	50	230	300	PAL2	0	R1130M
1126.922	4.0	592417	TEST_PROBE	n/a	wordpools/wordpool_EN.txt	BOX	MILK	3	3	MILK	n/a	0	8	[0, 0, 0]	n/a	1	1	4600	LFG15	LFG16	1000.0	50	230	300	PAL2	0	R1130M
1126.923	0.0	592417	REC_START	n/a	n/a	n/a	n/a	3	-999	n/a	n/a	0	8	[0, 0, 0]	n/a	1	1	4600	LFG15	LFG16	1000.0	50	230	300	PAL2	0	R1130M
1126.923	5.011	592417	REC_EVENT	0.0	n/a	BOX	MILK	3	3	MILK	<>	0	8	[0, 0, 0]	n/a	1	1	4600	LFG15	LFG16	1000.0	50	230	300	PAL2	0	R1130M
1131.934	0.023	594923	REC_END	n/a	n/a	n/a	n/a	3	-999	n/a	n/a	-999	8	[0, 0, 0]	n/a	0	1	0	n/a	n/a	0.0	0	0	0	PAL2	0	R1130M
1131.957	0.25	594934	TEST_ORIENT	n/a	n/a	BRICK	MAT	2	4	BRICK	n/a	0	8	[0, 0, 0]	n/a	0	1	0	n/a	n/a	0.0	0	0	0	PAL2	0	R1130M
1132.907	0.0	595409	REC_START	n/a	n/a	n/a	n/a	2	-999	n/a	n/a	0	8	[0, 0, 0]	n/a	0	1	0	n/a	n/a	0.0	0	0	0	PAL2	0	R1130M
1132.907	0.0	595409	REC_EVENT	0.0	n/a	BRICK	MAT	2	4	BRICK	<>	0	8	[0, 0, 0]	n/a	0	1	0	n/a	n/a	0.0	0	0	0	PAL2	0	R1130M
1132.907	4.0	595409	TEST_PROBE	n/a	wordpools/wordpool_EN.txt	BRICK	MAT	2	4	BRICK	n/a	0	8	[0, 0, 0]	n/a	0	1	0	n/a	n/a	0.0	0	0	0	PAL2	0	R1130M
1137.924	0.017	597918	REC_END	n/a	n/a	n/a	n/a	2	-999	n/a	n/a	-999	8	[0, 0, 0]	n/a	0	1	0	n/a	n/a	0.0	0	0	0	PAL2	0	R1130M
1137.941	0.25	597926	TEST_ORIENT	n/a	n/a	MULE	POND	5	5	MULE	POND	1	8	[0, 0, 0]	n/a	0	1	0	n/a	n/a	0.0	0	0	0	PAL2	0	R1130M
1138.53	4.6	598221	STIM_ON	n/a	n/a	MULE	POND	5	5	MULE	POND	1	8	[0, 0, 0]	n/a	1	1	4600	LFG15	LFG16	1000.0	50	230	300	PAL2	0	R1130M
1138.741	4.0	598326	TEST_PROBE	n/a	wordpools/wordpool_EN.txt	MULE	POND	5	5	MULE	POND	1	8	[0, 0, 0]	n/a	1	1	4600	LFG15	LFG16	1000.0	50	230	300	PAL2	0	R1130M
1138.742	1.791	598327	REC_START	n/a	n/a	n/a	n/a	5	-999	n/a	POND	1	8	[0, 0, 0]	n/a	1	1	4600	LFG15	LFG16	1000.0	50	230	300	PAL2	0	R1130M
1140.533	3.22	599222	REC_EVENT	1.791	n/a	MULE	POND	5	5	MULE	POND	1	8	[0, 0, 0]	n/a	1	1	4600	LFG15	LFG16	1000.0	50	230	300	PAL2	0	R1130M
1143.753	0.023	600832	REC_END	n/a	n/a	n/a	n/a	5	-999	n/a	n/a	-999	8	[0, 0, 0]	n/a	0	1	0	n/a	n/a	0.0	0	0	0	PAL2	0	R1130M
1143.776	0.25	600843	TEST_ORIENT	n/a	n/a	SKI	BEACH	6	6	SKI	BEACH	1	8	[0, 0, 0]	n/a	0	1	0	n/a	n/a	0.0	0	0	0	PAL2	0	R1130M
1144.625	0.0	601268	REC_START	n/a	n/a	n/a	n/a	6	-999	n/a	BEACH	1	8	[0, 0, 0]	n/a	0	1	0	n/a	n/a	0.0	0	0	0	PAL2	0	R1130M
1144.625	4.0	601268	TEST_PROBE	n/a	wordpools/wordpool_EN.txt	SKI	BEACH	6	6	SKI	BEACH	1	8	[0, 0, 0]	n/a	0	1	0	n/a	n/a	0.0	0	0	0	PAL2	0	R1130M
1146.724	2.919	602317	REC_EVENT	2.099	n/a	SKI	BEACH	6	6	SKI	BEACH	1	8	[0, 0, 0]	n/a	0	1	0	n/a	n/a	0.0	0	0	0	PAL2	0	R1130M
1149.643	12.402	603777	REC_END	n/a	n/a	n/a	n/a	6	-999	n/a	n/a	-999	8	[0, 0, 0]	n/a	0	1	0	n/a	n/a	0.0	0	0	0	PAL2	0	R1130M
1162.045	10.453	609977	ENCODING_START	n/a	n/a	n/a	n/a	0	-999	n/a	n/a	-999	9	[0, 0, 0]	n/a	0	1	0	n/a	n/a	0.0	0	0	0	PAL2	0	R1130M
1172.498	0.25	615204	STUDY_ORIENT	n/a	n/a	SHOE	CHEEK	1	1	CHEEK	n/a	0	9	[0, 0, 0]	n/a	0	1	0	n/a	n/a	0.0	0	0	0	PAL2	0	R1130M
1173.365	4.0	615637	STUDY_PAIR	n/a	wordpools/wordpool_EN.txt	SHOE	CHEEK	1	1	CHEEK	n/a	0	9	[0, 0, 0]	n/a	0	1	0	n/a	n/a	0.0	0	0	0	PAL2	0	R1130M
1178.383	0.25	618146	STUDY_ORIENT	n/a	n/a	RICE	HOOF	2	6	HOOF	n/a	0	9	[0, 0, 0]	n/a	0	1	0	n/a	n/a	0.0	0	0	0	PAL2	0	R1130M
1179.4	4.0	618654	STUDY_PAIR	n/a	wordpools/wordpool_EN.txt	RICE	HOOF	2	6	HOOF	n/a	0	9	[0, 0, 0]	n/a	0	1	0	n/a	n/a	0.0	0	0	0	PAL2	0	R1130M
1184.434	0.25	621171	STUDY_ORIENT	n/a	n/a	SMOKE	CART	3	5	SMOKE	n/a	0	9	[0, 0, 0]	n/a	0	1	0	n/a	n/a	0.0	0	0	0	PAL2	0	R1130M
1185.451	4.0	621680	STUDY_PAIR	n/a	wordpools/wordpool_EN.txt	SMOKE	CART	3	5	SMOKE	n/a	0	9	[0, 0, 0]	n/a	0	1	0	n/a	n/a	0.0	0	0	0	PAL2	0	R1130M
1190.485	0.25	624197	STUDY_ORIENT	n/a	n/a	FUR	FORK	4	2	FORK	n/a	0	9	[0, 0, 0]	n/a	0	1	0	n/a	n/a	0.0	0	0	0	PAL2	0	R1130M
1191.402	4.0	624655	STUDY_PAIR	n/a	wordpools/wordpool_EN.txt	FUR	FORK	4	2	FORK	n/a	0	9	[0, 0, 0]	n/a	0	1	0	n/a	n/a	0.0	0	0	0	PAL2	0	R1130M
1196.436	0.25	627172	STUDY_ORIENT	n/a	n/a	PASTE	STEM	5	3	STEM	n/a	0	9	[0, 0, 0]	n/a	0	1	0	n/a	n/a	0.0	0	0	0	PAL2	0	R1130M
1197.286	4.0	627597	STUDY_PAIR	n/a	wordpools/wordpool_EN.txt	PASTE	STEM	5	3	STEM	n/a	0	9	[0, 0, 0]	n/a	0	1	0	n/a	n/a	0.0	0	0	0	PAL2	0	R1130M
1202.304	0.25	630106	STUDY_ORIENT	n/a	n/a	JEEP	POOL	6	4	JEEP	n/a	0	9	[0, 0, 0]	n/a	0	1	0	n/a	n/a	0.0	0	0	0	PAL2	0	R1130M
1203.238	4.0	630573	STUDY_PAIR	n/a	wordpools/wordpool_EN.txt	JEEP	POOL	6	4	JEEP	n/a	0	9	[0, 0, 0]	n/a	0	1	0	n/a	n/a	0.0	0	0	0	PAL2	0	R1130M
1207.256	0.999	632582	START	n/a	n/a	n/a	n/a	-999	-999	n/a	n/a	-999	9	[-999, -999, -999]	n/a	0	1	0	n/a	n/a	0.0	0	0	0	PAL2	0	R1130M
1208.255	0.017	633081	MATH_START	n/a	n/a	n/a	n/a	-999	-999	n/a	n/a	-999	9	[0, 0, 0]	n/a	0	1	0	n/a	n/a	0.0	0	0	0	PAL2	0	R1130M
1208.272	6.668	633090	PROB	6.645	n/a	n/a	n/a	-999	-999	n/a	n/a	-999	9	[4, 5, 1]	10	0	1	0	n/a	n/a	0.0	0	0	0	PAL2	0	R1130M
1214.94	10.668	636423	PROB	10.641	n/a	n/a	n/a	-999	-999	n/a	n/a	-999	9	[9, 4, 8]	21	0	1	0	n/a	n/a	0.0	0	0	0	PAL2	0	R1130M
1225.608	8.149	641757	PROB	8.149	n/a	n/a	n/a	-999	-999	n/a	n/a	-999	9	[1, 2, 7]	10	0	1	0	n/a	n/a	0.0	0	0	0	PAL2	0	R1130M
1233.757	0.004	645831	STOP	n/a	n/a	n/a	n/a	-999	-999	n/a	n/a	-999	9	[-999, -999, -999]	n/a	0	1	0	n/a	n/a	0.0	0	0	0	PAL2	0	R1130M
1233.761	0.0	645833	MATH_END	n/a	n/a	n/a	n/a	-999	-999	n/a	n/a	-999	9	[0, 0, 0]	n/a	0	1	0	n/a	n/a	0.0	0	0	0	PAL2	0	R1130M
1233.761	0.016	645833	TEST_START	n/a	n/a	n/a	n/a	-999	-999	n/a	n/a	-999	9	[0, 0, 0]	n/a	0	1	0	n/a	n/a	0.0	0	0	0	PAL2	0	R1130M
1233.777	0.25	645841	TEST_ORIENT	n/a	n/a	SHOE	CHEEK	1	1	CHEEK	n/a	0	9	[0, 0, 0]	n/a	0	1	0	n/a	n/a	0.0	0	0	0	PAL2	0	R1130M
1234.744	4.0	646325	TEST_PROBE	n/a	wordpools/wordpool_EN.txt	SHOE	CHEEK	1	1	CHEEK	n/a	0	9	[0, 0, 0]	n/a	0	1	0	n/a	n/a	0.0	0	0	0	PAL2	0	R1130M
1234.744	0.0	646325	REC_START	n/a	n/a	n/a	n/a	1	-999	n/a	n/a	0	9	[0, 0, 0]	n/a	0	1	0	n/a	n/a	0.0	0	0	0	PAL2	0	R1130M
1234.744	5.018	646325	REC_EVENT	0.0	n/a	SHOE	CHEEK	1	1	CHEEK	<>	0	9	[0, 0, 0]	n/a	0	1	0	n/a	n/a	0.0	0	0	0	PAL2	0	R1130M
1239.762	0.016	648834	REC_END	n/a	n/a	n/a	n/a	1	-999	n/a	n/a	-999	9	[0, 0, 0]	n/a	0	1	0	n/a	n/a	0.0	0	0	0	PAL2	0	R1130M
1239.778	0.25	648842	TEST_ORIENT	n/a	n/a	FUR	FORK	4	2	FORK	n/a	0	9	[0, 0, 0]	n/a	0	1	0	n/a	n/a	0.0	0	0	0	PAL2	0	R1130M
1240.531	4.6	649218	STIM_ON	n/a	n/a	FUR	FORK	4	2	FORK	n/a	0	9	[0, 0, 0]	n/a	1	1	4600	LFG15	LFG16	1000.0	50	230	300	PAL2	0	R1130M
1240.745	4.0	649325	TEST_PROBE	n/a	wordpools/wordpool_EN.txt	FUR	FORK	4	2	FORK	n/a	0	9	[0, 0, 0]	n/a	1	1	4600	LFG15	LFG16	1000.0	50	230	300	PAL2	0	R1130M
1240.746	0.0	649326	REC_START	n/a	n/a	n/a	n/a	4	-999	n/a	n/a	0	9	[0, 0, 0]	n/a	1	1	4600	LFG15	LFG16	1000.0	50	230	300	PAL2	0	R1130M
1240.746	5.011	649326	REC_EVENT	0.0	n/a	FUR	FORK	4	2	FORK	<>	0	9	[0, 0, 0]	n/a	1	1	4600	LFG15	LFG16	1000.0	50	230	300	PAL2	0	R1130M
1245.757	0.023	651831	REC_END	n/a	n/a	n/a	n/a	4	-999	n/a	n/a	-999	9	[0, 0, 0]	n/a	0	1	0	n/a	n/a	0.0	0	0	0	PAL2	0	R1130M
1245.78	0.25	651843	TEST_ORIENT	n/a	n/a	PASTE	STEM	5	3	STEM	n/a	0	9	[0, 0, 0]	n/a	0	1	0	n/a	n/a	0.0	0	0	0	PAL2	0	R1130M
1246.78	4.0	652343	TEST_PROBE	n/a	wordpools/wordpool_EN.txt	PASTE	STEM	5	3	STEM	n/a	0	9	[0, 0, 0]	n/a	0	1	0	n/a	n/a	0.0	0	0	0	PAL2	0	R1130M
1246.78	0.0	652343	REC_START	n/a	n/a	n/a	n/a	5	-999	n/a	n/a	0	9	[0, 0, 0]	n/a	0	1	0	n/a	n/a	0.0	0	0	0	PAL2	0	R1130M
1246.78	5.017	652343	REC_EVENT	0.0	n/a	PASTE	STEM	5	3	STEM	<>	0	9	[0, 0, 0]	n/a	0	1	0	n/a	n/a	0.0	0	0	0	PAL2	0	R1130M
1251.797	0.017	654851	REC_END	n/a	n/a	n/a	n/a	5	-999	n/a	n/a	-999	9	[0, 0, 0]	n/a	0	1	0	n/a	n/a	0.0	0	0	0	PAL2	0	R1130M
1251.814	0.25	654859	TEST_ORIENT	n/a	n/a	JEEP	POOL	6	4	JEEP	n/a	0	9	[0, 0, 0]	n/a	0	1	0	n/a	n/a	0.0	0	0	0	PAL2	0	R1130M
1252.626	4.6	655265	STIM_ON	n/a	n/a	JEEP	POOL	6	4	JEEP	n/a	0	9	[0, 0, 0]	n/a	1	1	4600	LFG15	LFG16	1000.0	50	230	300	PAL2	0	R1130M
1252.831	0.0	655368	REC_EVENT	0.0	n/a	JEEP	POOL	6	4	JEEP	<>	0	9	[0, 0, 0]	n/a	1	1	4600	LFG15	LFG16	1000.0	50	230	300	PAL2	0	R1130M
1252.831	4.0	655368	TEST_PROBE	n/a	wordpools/wordpool_EN.txt	JEEP	POOL	6	4	JEEP	n/a	0	9	[0, 0, 0]	n/a	1	1	4600	LFG15	LFG16	1000.0	50	230	300	PAL2	0	R1130M
1252.831	5.017	655368	REC_START	n/a	n/a	n/a	n/a	6	-999	n/a	n/a	0	9	[0, 0, 0]	n/a	1	1	4600	LFG15	LFG16	1000.0	50	230	300	PAL2	0	R1130M
1257.848	0.017	657876	REC_END	n/a	n/a	n/a	n/a	6	-999	n/a	n/a	-999	9	[0, 0, 0]	n/a	0	1	0	n/a	n/a	0.0	0	0	0	PAL2	0	R1130M
1257.865	0.25	657885	TEST_ORIENT	n/a	n/a	SMOKE	CART	3	5	SMOKE	n/a	0	9	[0, 0, 0]	n/a	0	1	0	n/a	n/a	0.0	0	0	0	PAL2	0	R1130M
1258.715	4.0	658310	TEST_PROBE	n/a	wordpools/wordpool_EN.txt	SMOKE	CART	3	5	SMOKE	n/a	0	9	[0, 0, 0]	n/a	0	1	0	n/a	n/a	0.0	0	0	0	PAL2	0	R1130M
1258.716	0.0	658310	REC_START	n/a	n/a	n/a	n/a	3	-999	n/a	n/a	0	9	[0, 0, 0]	n/a	0	1	0	n/a	n/a	0.0	0	0	0	PAL2	0	R1130M
1258.716	5.01	658310	REC_EVENT	0.0	n/a	SMOKE	CART	3	5	SMOKE	<>	0	9	[0, 0, 0]	n/a	0	1	0	n/a	n/a	0.0	0	0	0	PAL2	0	R1130M
1263.726	0.024	660815	REC_END	n/a	n/a	n/a	n/a	3	-999	n/a	n/a	-999	9	[0, 0, 0]	n/a	0	1	0	n/a	n/a	0.0	0	0	0	PAL2	0	R1130M
1263.75	0.25	660827	TEST_ORIENT	n/a	n/a	RICE	HOOF	2	6	HOOF	n/a	0	9	[0, 0, 0]	n/a	0	1	0	n/a	n/a	0.0	0	0	0	PAL2	0	R1130M
1264.502	4.6	661203	STIM_ON	n/a	n/a	RICE	HOOF	2	6	HOOF	n/a	0	9	[0, 0, 0]	n/a	1	1	4600	LFG15	LFG16	1000.0	50	230	300	PAL2	0	R1130M
1264.717	0.0	661311	REC_EVENT	0.0	n/a	RICE	HOOF	2	6	HOOF	<>	0	9	[0, 0, 0]	n/a	1	1	4600	LFG15	LFG16	1000.0	50	230	300	PAL2	0	R1130M
1264.717	4.0	661311	TEST_PROBE	n/a	wordpools/wordpool_EN.txt	RICE	HOOF	2	6	HOOF	n/a	0	9	[0, 0, 0]	n/a	1	1	4600	LFG15	LFG16	1000.0	50	230	300	PAL2	0	R1130M
1264.717	5.017	661311	REC_START	n/a	n/a	n/a	n/a	2	-999	n/a	n/a	0	9	[0, 0, 0]	n/a	1	1	4600	LFG15	LFG16	1000.0	50	230	300	PAL2	0	R1130M
1269.734	10.799	663819	REC_END	n/a	n/a	n/a	n/a	2	-999	n/a	n/a	-999	9	[0, 0, 0]	n/a	0	1	0	n/a	n/a	0.0	0	0	0	PAL2	0	R1130M
1280.533	10.439	669218	ENCODING_START	n/a	n/a	n/a	n/a	0	-999	n/a	n/a	-999	10	[0, 0, 0]	n/a	0	1	0	n/a	n/a	0.0	0	0	0	PAL2	0	R1130M
1290.972	0.25	674437	STUDY_ORIENT	n/a	n/a	FROG	CANE	1	3	CANE	n/a	0	10	[0, 0, 0]	n/a	0	1	0	n/a	n/a	0.0	0	0	0	PAL2	0	R1130M
1291.972	4.0	674937	STUDY_PAIR	n/a	wordpools/wordpool_EN.txt	FROG	CANE	1	3	CANE	n/a	0	10	[0, 0, 0]	n/a	0	1	0	n/a	n/a	0.0	0	0	0	PAL2	0	R1130M
1296.99	0.25	677446	STUDY_ORIENT	n/a	n/a	DESK	STRAW	2	4	STRAW	n/a	0	10	[0, 0, 0]	n/a	0	1	0	n/a	n/a	0.0	0	0	0	PAL2	0	R1130M
1297.99	4.0	677946	STUDY_PAIR	n/a	wordpools/wordpool_EN.txt	DESK	STRAW	2	4	STRAW	n/a	0	10	[0, 0, 0]	n/a	0	1	0	n/a	n/a	0.0	0	0	0	PAL2	0	R1130M
1303.024	0.25	680463	STUDY_ORIENT	n/a	n/a	ROPE	WAND	3	1	WAND	ROPE	1	10	[0, 0, 0]	n/a	0	1	0	n/a	n/a	0.0	0	0	0	PAL2	0	R1130M
1303.924	4.0	680913	STUDY_PAIR	n/a	wordpools/wordpool_EN.txt	ROPE	WAND	3	1	WAND	ROPE	1	10	[0, 0, 0]	n/a	0	1	0	n/a	n/a	0.0	0	0	0	PAL2	0	R1130M
1308.942	0.25	683422	STUDY_ORIENT	n/a	n/a	CAR	CLOWN	4	6	CAR	POND	0	10	[0, 0, 0]	n/a	0	1	0	n/a	n/a	0.0	0	0	0	PAL2	0	R1130M
1309.942	4.0	683922	STUDY_PAIR	n/a	wordpools/wordpool_EN.txt	CAR	CLOWN	4	6	CAR	POND	0	10	[0, 0, 0]	n/a	0	1	0	n/a	n/a	0.0	0	0	0	PAL2	0	R1130M
1314.96	0.25	686431	STUDY_ORIENT	n/a	n/a	FACE	HEN	5	5	FACE	n/a	0	10	[0, 0, 0]	n/a	0	1	0	n/a	n/a	0.0	0	0	0	PAL2	0	R1130M
1315.96	4.0	686931	STUDY_PAIR	n/a	wordpools/wordpool_EN.txt	FACE	HEN	5	5	FACE	n/a	0	10	[0, 0, 0]	n/a	0	1	0	n/a	n/a	0.0	0	0	0	PAL2	0	R1130M
1320.978	0.25	689439	STUDY_ORIENT	n/a	n/a	DOG	LOCK	6	2	LOCK	n/a	0	10	[0, 0, 0]	n/a	0	1	0	n/a	n/a	0.0	0	0	0	PAL2	0	R1130M
1321.945	4.0	689923	STUDY_PAIR	n/a	wordpools/wordpool_EN.txt	DOG	LOCK	6	2	LOCK	n/a	0	10	[0, 0, 0]	n/a	0	1	0	n/a	n/a	0.0	0	0	0	PAL2	0	R1130M
1325.963	0.999	691932	START	n/a	n/a	n/a	n/a	-999	-999	n/a	n/a	-999	10	[-999, -999, -999]	n/a	0	1	0	n/a	n/a	0.0	0	0	0	PAL2	0	R1130M
1326.962	0.017	692431	MATH_START	n/a	n/a	n/a	n/a	-999	-999	n/a	n/a	-999	10	[0, 0, 0]	n/a	0	1	0	n/a	n/a	0.0	0	0	0	PAL2	0	R1130M
1326.979	11.002	692440	PROB	10.97	n/a	n/a	n/a	-999	-999	n/a	n/a	-999	10	[9, 6, 2]	17	0	1	0	n/a	n/a	0.0	0	0	0	PAL2	0	R1130M
1337.981	5.235	697941	PROB	5.208	n/a	n/a	n/a	-999	-999	n/a	n/a	-999	10	[3, 3, 5]	11	0	1	0	n/a	n/a	0.0	0	0	0	PAL2	0	R1130M
1343.216	10.997	700558	PROB	10.997	n/a	n/a	n/a	-999	-999	n/a	n/a	-999	10	[7, 1, 9]	17	0	1	0	n/a	n/a	0.0	0	0	0	PAL2	0	R1130M
1354.213	0.005	706056	STOP	n/a	n/a	n/a	n/a	-999	-999	n/a	n/a	-999	10	[-999, -999, -999]	n/a	0	1	0	n/a	n/a	0.0	0	0	0	PAL2	0	R1130M
1354.218	0.0	706059	MATH_END	n/a	n/a	n/a	n/a	-999	-999	n/a	n/a	-999	10	[0, 0, 0]	n/a	0	1	0	n/a	n/a	0.0	0	0	0	PAL2	0	R1130M
1354.218	0.016	706059	TEST_START	n/a	n/a	n/a	n/a	-999	-999	n/a	n/a	-999	10	[0, 0, 0]	n/a	0	1	0	n/a	n/a	0.0	0	0	0	PAL2	0	R1130M
1354.234	0.25	706067	TEST_ORIENT	n/a	n/a	ROPE	WAND	3	1	WAND	ROPE	1	10	[0, 0, 0]	n/a	0	1	0	n/a	n/a	0.0	0	0	0	PAL2	0	R1130M
1354.875	4.6	706387	STIM_ON	n/a	n/a	ROPE	WAND	3	1	WAND	ROPE	1	10	[0, 0, 0]	n/a	1	1	4600	LFG15	LFG16	1000.0	50	230	300	PAL2	0	R1130M
1355.085	0.0	706492	REC_START	n/a	n/a	n/a	n/a	3	-999	n/a	ROPE	1	10	[0, 0, 0]	n/a	1	1	4600	LFG15	LFG16	1000.0	50	230	300	PAL2	0	R1130M
1355.085	4.0	706492	TEST_PROBE	n/a	wordpools/wordpool_EN.txt	ROPE	WAND	3	1	WAND	ROPE	1	10	[0, 0, 0]	n/a	1	1	4600	LFG15	LFG16	1000.0	50	230	300	PAL2	0	R1130M
1356.53	3.572	707214	REC_EVENT	1.445	n/a	ROPE	WAND	3	1	WAND	ROPE	1	10	[0, 0, 0]	n/a	1	1	4600	LFG15	LFG16	1000.0	50	230	300	PAL2	0	R1130M
1360.102	0.017	709000	REC_END	n/a	n/a	n/a	n/a	3	-999	n/a	n/a	-999	10	[0, 0, 0]	n/a	0	1	0	n/a	n/a	0.0	0	0	0	PAL2	0	R1130M
1360.119	0.25	709009	TEST_ORIENT	n/a	n/a	DOG	LOCK	6	2	LOCK	n/a	0	10	[0, 0, 0]	n/a	0	1	0	n/a	n/a	0.0	0	0	0	PAL2	0	R1130M
1361.103	4.0	709501	TEST_PROBE	n/a	wordpools/wordpool_EN.txt	DOG	LOCK	6	2	LOCK	n/a	0	10	[0, 0, 0]	n/a	0	1	0	n/a	n/a	0.0	0	0	0	PAL2	0	R1130M
1361.103	0.0	709501	REC_START	n/a	n/a	n/a	n/a	6	-999	n/a	n/a	0	10	[0, 0, 0]	n/a	0	1	0	n/a	n/a	0.0	0	0	0	PAL2	0	R1130M
1361.103	5.017	709501	REC_EVENT	0.0	n/a	DOG	LOCK	6	2	LOCK	<>	0	10	[0, 0, 0]	n/a	0	1	0	n/a	n/a	0.0	0	0	0	PAL2	0	R1130M
1366.12	0.017	712009	REC_END	n/a	n/a	n/a	n/a	6	-999	n/a	n/a	-999	10	[0, 0, 0]	n/a	0	1	0	n/a	n/a	0.0	0	0	0	PAL2	0	R1130M
1366.137	0.25	712018	TEST_ORIENT	n/a	n/a	FROG	CANE	1	3	CANE	n/a	0	10	[0, 0, 0]	n/a	0	1	0	n/a	n/a	0.0	0	0	0	PAL2	0	R1130M
1366.743	4.6	712321	STIM_ON	n/a	n/a	FROG	CANE	1	3	CANE	n/a	0	10	[0, 0, 0]	n/a	1	1	4600	LFG15	LFG16	1000.0	50	230	300	PAL2	0	R1130M
1366.954	0.0	712426	REC_EVENT	0.0	n/a	FROG	CANE	1	3	CANE	<>	0	10	[0, 0, 0]	n/a	1	1	4600	LFG15	LFG16	1000.0	50	230	300	PAL2	0	R1130M
1366.954	0.0	712426	REC_START	n/a	n/a	n/a	n/a	1	-999	n/a	n/a	0	10	[0, 0, 0]	n/a	1	1	4600	LFG15	LFG16	1000.0	50	230	300	PAL2	0	R1130M
1366.954	4.0	712426	TEST_PROBE	n/a	wordpools/wordpool_EN.txt	FROG	CANE	1	3	CANE	n/a	0	10	[0, 0, 0]	n/a	1	1	4600	LFG15	LFG16	1000.0	50	230	300	PAL2	0	R1130M
1371.971	0.017	714935	REC_END	n/a	n/a	n/a	n/a	1	-999	n/a	n/a	-999	10	[0, 0, 0]	n/a	0	1	0	n/a	n/a	0.0	0	0	0	PAL2	0	R1130M
1371.988	0.25	714943	TEST_ORIENT	n/a	n/a	DESK	STRAW	2	4	STRAW	n/a	0	10	[0, 0, 0]	n/a	0	1	0	n/a	n/a	0.0	0	0	0	PAL2	0	R1130M
1372.905	4.0	715402	TEST_PROBE	n/a	wordpools/wordpool_EN.txt	DESK	STRAW	2	4	STRAW	n/a	0	10	[0, 0, 0]	n/a	0	1	0	n/a	n/a	0.0	0	0	0	PAL2	0	R1130M
1372.905	0.0	715402	REC_START	n/a	n/a	n/a	n/a	2	-999	n/a	n/a	0	10	[0, 0, 0]	n/a	0	1	0	n/a	n/a	0.0	0	0	0	PAL2	0	R1130M
1372.905	5.017	715402	REC_EVENT	0.0	n/a	DESK	STRAW	2	4	STRAW	<>	0	10	[0, 0, 0]	n/a	0	1	0	n/a	n/a	0.0	0	0	0	PAL2	0	R1130M
1377.922	0.017	717910	REC_END	n/a	n/a	n/a	n/a	2	-999	n/a	n/a	-999	10	[0, 0, 0]	n/a	0	1	0	n/a	n/a	0.0	0	0	0	PAL2	0	R1130M
1377.939	0.25	717918	TEST_ORIENT	n/a	n/a	FACE	HEN	5	5	FACE	n/a	0	10	[0, 0, 0]	n/a	0	1	0	n/a	n/a	0.0	0	0	0	PAL2	0	R1130M
1378.576	4.6	718237	STIM_ON	n/a	n/a	FACE	HEN	5	5	FACE	n/a	0	10	[0, 0, 0]	n/a	1	1	4600	LFG15	LFG16	1000.0	50	230	300	PAL2	0	R1130M
1378.789	4.0	718343	TEST_PROBE	n/a	wordpools/wordpool_EN.txt	FACE	HEN	5	5	FACE	n/a	0	10	[0, 0, 0]	n/a	1	1	4600	LFG15	LFG16	1000.0	50	230	300	PAL2	0	R1130M
1378.79	0.0	718344	REC_EVENT	0.0	n/a	FACE	HEN	5	5	FACE	<>	0	10	[0, 0, 0]	n/a	1	1	4600	LFG15	LFG16	1000.0	50	230	300	PAL2	0	R1130M
1378.79	5.011	718344	REC_START	n/a	n/a	n/a	n/a	5	-999	n/a	n/a	0	10	[0, 0, 0]	n/a	1	1	4600	LFG15	LFG16	1000.0	50	230	300	PAL2	0	R1130M
1383.801	0.023	720849	REC_END	n/a	n/a	n/a	n/a	5	-999	n/a	n/a	-999	10	[0, 0, 0]	n/a	0	1	0	n/a	n/a	0.0	0	0	0	PAL2	0	R1130M
1383.824	0.25	720861	TEST_ORIENT	n/a	n/a	CAR	CLOWN	4	6	CAR	POND	0	10	[0, 0, 0]	n/a	0	1	0	n/a	n/a	0.0	0	0	0	PAL2	0	R1130M
1384.657	4.0	721277	TEST_PROBE	n/a	wordpools/wordpool_EN.txt	CAR	CLOWN	4	6	CAR	POND	0	10	[0, 0, 0]	n/a	0	1	0	n/a	n/a	0.0	0	0	0	PAL2	0	R1130M
1384.658	4.067	721278	REC_START	n/a	n/a	n/a	n/a	4	-999	n/a	POND	0	10	[0, 0, 0]	n/a	0	1	0	n/a	n/a	0.0	0	0	0	PAL2	0	R1130M
1388.725	0.943	723311	REC_EVENT	4.067	n/a	CAR	CLOWN	4	6	CAR	POND	0	10	[0, 0, 0]	n/a	0	1	0	n/a	n/a	0.0	0	0	0	PAL2	0	R1130M
1389.668	17.657	723783	REC_END	n/a	n/a	n/a	n/a	4	-999	n/a	n/a	-999	10	[0, 0, 0]	n/a	0	1	0	n/a	n/a	0.0	0	0	0	PAL2	0	R1130M
1407.325	10.439	732611	ENCODING_START	n/a	n/a	n/a	n/a	0	-999	n/a	n/a	-999	11	[0, 0, 0]	n/a	0	1	0	n/a	n/a	0.0	0	0	0	PAL2	0	R1130M
1417.764	0.25	737830	STUDY_ORIENT	n/a	n/a	LAMP	WORLD	1	3	LAMP	n/a	0	11	[0, 0, 0]	n/a	0	1	0	n/a	n/a	0.0	0	0	0	PAL2	0	R1130M
1418.514	4.6	738205	STIM_ON	n/a	n/a	LAMP	WORLD	1	3	LAMP	n/a	0	11	[0, 0, 0]	n/a	1	1	4600	LFG15	LFG16	1000.0	50	230	300	PAL2	0	R1130M
1418.73	4.0	738313	STUDY_PAIR	n/a	wordpools/wordpool_EN.txt	LAMP	WORLD	1	3	LAMP	n/a	0	11	[0, 0, 0]	n/a	1	1	4600	LFG15	LFG16	1000.0	50	230	300	PAL2	0	R1130M
1423.748	0.25	740822	STUDY_ORIENT	n/a	n/a	CRANE	BEAR	2	6	CRANE	n/a	0	11	[0, 0, 0]	n/a	0	1	0	n/a	n/a	0.0	0	0	0	PAL2	0	R1130M
1424.598	4.0	741247	STUDY_PAIR	n/a	wordpools/wordpool_EN.txt	CRANE	BEAR	2	6	CRANE	n/a	0	11	[0, 0, 0]	n/a	0	1	0	n/a	n/a	0.0	0	0	0	PAL2	0	R1130M
1429.633	0.25	743764	STUDY_ORIENT	n/a	n/a	VASE	RUG	3	1	RUG	n/a	0	11	[0, 0, 0]	n/a	0	1	0	n/a	n/a	0.0	0	0	0	PAL2	0	R1130M
1430.385	4.6	744140	STIM_ON	n/a	n/a	VASE	RUG	3	1	RUG	n/a	0	11	[0, 0, 0]	n/a	1	1	4600	LFG15	LFG16	1000.0	50	230	300	PAL2	0	R1130M
1430.599	4.0	744247	STUDY_PAIR	n/a	wordpools/wordpool_EN.txt	VASE	RUG	3	1	RUG	n/a	0	11	[0, 0, 0]	n/a	1	1	4600	LFG15	LFG16	1000.0	50	230	300	PAL2	0	R1130M
1435.634	0.25	746764	STUDY_ORIENT	n/a	n/a	CAGE	ARK	4	4	ARK	n/a	0	11	[0, 0, 0]	n/a	0	1	0	n/a	n/a	0.0	0	0	0	PAL2	0	R1130M
1436.501	4.0	747198	STUDY_PAIR	n/a	wordpools/wordpool_EN.txt	CAGE	ARK	4	4	ARK	n/a	0	11	[0, 0, 0]	n/a	0	1	0	n/a	n/a	0.0	0	0	0	PAL2	0	R1130M
1441.535	0.25	749715	STUDY_ORIENT	n/a	n/a	FRUIT	JET	5	5	FRUIT	n/a	0	11	[0, 0, 0]	n/a	0	1	0	n/a	n/a	0.0	0	0	0	PAL2	0	R1130M
1442.3	4.6	750097	STIM_ON	n/a	n/a	FRUIT	JET	5	5	FRUIT	n/a	0	11	[0, 0, 0]	n/a	1	1	4600	LFG15	LFG16	1000.0	50	230	300	PAL2	0	R1130M
1442.502	4.0	750198	STUDY_PAIR	n/a	wordpools/wordpool_EN.txt	FRUIT	JET	5	5	FRUIT	n/a	0	11	[0, 0, 0]	n/a	1	1	4600	LFG15	LFG16	1000.0	50	230	300	PAL2	0	R1130M
1447.52	0.25	752707	STUDY_ORIENT	n/a	n/a	SALT	LAND	6	2	LAND	SALT	1	11	[0, 0, 0]	n/a	0	1	0	n/a	n/a	0.0	0	0	0	PAL2	0	R1130M
1448.487	4.0	753190	STUDY_PAIR	n/a	wordpools/wordpool_EN.txt	SALT	LAND	6	2	LAND	SALT	1	11	[0, 0, 0]	n/a	0	1	0	n/a	n/a	0.0	0	0	0	PAL2	0	R1130M
1452.505	0.999	755199	START	n/a	n/a	n/a	n/a	-999	-999	n/a	n/a	-999	11	[-999, -999, -999]	n/a	0	1	0	n/a	n/a	0.0	0	0	0	PAL2	0	R1130M
1453.504	0.017	755699	MATH_START	n/a	n/a	n/a	n/a	-999	-999	n/a	n/a	-999	11	[0, 0, 0]	n/a	0	1	0	n/a	n/a	0.0	0	0	0	PAL2	0	R1130M
1453.521	20.724	755707	PROB	20.724	n/a	n/a	n/a	-999	-999	n/a	n/a	-999	11	[8, 7, 8]	23	0	1	0	n/a	n/a	0.0	0	0	0	PAL2	0	R1130M
1474.245	0.013	766069	STOP	n/a	n/a	n/a	n/a	-999	-999	n/a	n/a	-999	11	[-999, -999, -999]	n/a	0	1	0	n/a	n/a	0.0	0	0	0	PAL2	0	R1130M
1474.258	0.0	766075	MATH_END	n/a	n/a	n/a	n/a	-999	-999	n/a	n/a	-999	11	[0, 0, 0]	n/a	0	1	0	n/a	n/a	0.0	0	0	0	PAL2	0	R1130M
1474.258	0.017	766075	TEST_START	n/a	n/a	n/a	n/a	-999	-999	n/a	n/a	-999	11	[0, 0, 0]	n/a	0	1	0	n/a	n/a	0.0	0	0	0	PAL2	0	R1130M
1474.275	0.25	766084	TEST_ORIENT	n/a	n/a	VASE	RUG	3	1	RUG	n/a	0	11	[0, 0, 0]	n/a	0	1	0	n/a	n/a	0.0	0	0	0	PAL2	0	R1130M
1475.159	4.0	766526	TEST_PROBE	n/a	wordpools/wordpool_EN.txt	VASE	RUG	3	1	RUG	n/a	0	11	[0, 0, 0]	n/a	0	1	0	n/a	n/a	0.0	0	0	0	PAL2	0	R1130M
1475.159	0.0	766526	REC_START	n/a	n/a	n/a	n/a	3	-999	n/a	n/a	0	11	[0, 0, 0]	n/a	0	1	0	n/a	n/a	0.0	0	0	0	PAL2	0	R1130M
1475.159	5.017	766526	REC_EVENT	0.0	n/a	VASE	RUG	3	1	RUG	<>	0	11	[0, 0, 0]	n/a	0	1	0	n/a	n/a	0.0	0	0	0	PAL2	0	R1130M
1480.176	0.017	769034	REC_END	n/a	n/a	n/a	n/a	3	-999	n/a	n/a	-999	11	[0, 0, 0]	n/a	0	1	0	n/a	n/a	0.0	0	0	0	PAL2	0	R1130M
1480.193	0.25	769043	TEST_ORIENT	n/a	n/a	SALT	LAND	6	2	LAND	SALT	1	11	[0, 0, 0]	n/a	0	1	0	n/a	n/a	0.0	0	0	0	PAL2	0	R1130M
1481.143	4.0	769518	TEST_PROBE	n/a	wordpools/wordpool_EN.txt	SALT	LAND	6	2	LAND	SALT	1	11	[0, 0, 0]	n/a	0	1	0	n/a	n/a	0.0	0	0	0	PAL2	0	R1130M
1481.144	0.921	769518	REC_START	n/a	n/a	n/a	n/a	6	-999	n/a	SALT	1	11	[0, 0, 0]	n/a	0	1	0	n/a	n/a	0.0	0	0	0	PAL2	0	R1130M
1482.065	4.09	769979	REC_EVENT	0.921	n/a	SALT	LAND	6	2	LAND	SALT	1	11	[0, 0, 0]	n/a	0	1	0	n/a	n/a	0.0	0	0	0	PAL2	0	R1130M
1486.155	0.022	772023	REC_END	n/a	n/a	n/a	n/a	6	-999	n/a	n/a	-999	11	[0, 0, 0]	n/a	0	1	0	n/a	n/a	0.0	0	0	0	PAL2	0	R1130M
1486.177	0.25	772034	TEST_ORIENT	n/a	n/a	LAMP	WORLD	1	3	LAMP	n/a	0	11	[0, 0, 0]	n/a	0	1	0	n/a	n/a	0.0	0	0	0	PAL2	0	R1130M
1487.028	4.0	772460	TEST_PROBE	n/a	wordpools/wordpool_EN.txt	LAMP	WORLD	1	3	LAMP	n/a	0	11	[0, 0, 0]	n/a	0	1	0	n/a	n/a	0.0	0	0	0	PAL2	0	R1130M
1487.028	0.0	772460	REC_START	n/a	n/a	n/a	n/a	1	-999	n/a	n/a	0	11	[0, 0, 0]	n/a	0	1	0	n/a	n/a	0.0	0	0	0	PAL2	0	R1130M
1487.028	5.017	772460	REC_EVENT	0.0	n/a	LAMP	WORLD	1	3	LAMP	<>	0	11	[0, 0, 0]	n/a	0	1	0	n/a	n/a	0.0	0	0	0	PAL2	0	R1130M
1492.045	0.017	774968	REC_END	n/a	n/a	n/a	n/a	1	-999	n/a	n/a	-999	11	[0, 0, 0]	n/a	0	1	0	n/a	n/a	0.0	0	0	0	PAL2	0	R1130M
1492.062	0.25	774977	TEST_ORIENT	n/a	n/a	CAGE	ARK	4	4	ARK	n/a	0	11	[0, 0, 0]	n/a	0	1	0	n/a	n/a	0.0	0	0	0	PAL2	0	R1130M
1493.079	0.0	775485	REC_START	n/a	n/a	n/a	n/a	4	-999	n/a	n/a	0	11	[0, 0, 0]	n/a	0	1	0	n/a	n/a	0.0	0	0	0	PAL2	0	R1130M
1493.079	0.0	775485	REC_EVENT	0.0	n/a	CAGE	ARK	4	4	ARK	<>	0	11	[0, 0, 0]	n/a	0	1	0	n/a	n/a	0.0	0	0	0	PAL2	0	R1130M
1493.079	4.0	775485	TEST_PROBE	n/a	wordpools/wordpool_EN.txt	CAGE	ARK	4	4	ARK	n/a	0	11	[0, 0, 0]	n/a	0	1	0	n/a	n/a	0.0	0	0	0	PAL2	0	R1130M
1498.106	0.024	777999	REC_END	n/a	n/a	n/a	n/a	4	-999	n/a	n/a	-999	11	[0, 0, 0]	n/a	0	1	0	n/a	n/a	0.0	0	0	0	PAL2	0	R1130M
1498.13	0.25	778011	TEST_ORIENT	n/a	n/a	FRUIT	JET	5	5	FRUIT	n/a	0	11	[0, 0, 0]	n/a	0	1	0	n/a	n/a	0.0	0	0	0	PAL2	0	R1130M
1499.097	4.0	778494	TEST_PROBE	n/a	wordpools/wordpool_EN.txt	FRUIT	JET	5	5	FRUIT	n/a	0	11	[0, 0, 0]	n/a	0	1	0	n/a	n/a	0.0	0	0	0	PAL2	0	R1130M
1499.097	0.0	778494	REC_START	n/a	n/a	n/a	n/a	5	-999	n/a	n/a	0	11	[0, 0, 0]	n/a	0	1	0	n/a	n/a	0.0	0	0	0	PAL2	0	R1130M
1499.097	5.017	778494	REC_EVENT	0.0	n/a	FRUIT	JET	5	5	FRUIT	<>	0	11	[0, 0, 0]	n/a	0	1	0	n/a	n/a	0.0	0	0	0	PAL2	0	R1130M
1504.114	0.017	781002	REC_END	n/a	n/a	n/a	n/a	5	-999	n/a	n/a	-999	11	[0, 0, 0]	n/a	0	1	0	n/a	n/a	0.0	0	0	0	PAL2	0	R1130M
1504.131	0.25	781011	TEST_ORIENT	n/a	n/a	CRANE	BEAR	2	6	CRANE	n/a	0	11	[0, 0, 0]	n/a	0	1	0	n/a	n/a	0.0	0	0	0	PAL2	0	R1130M
1505.031	4.0	781461	TEST_PROBE	n/a	wordpools/wordpool_EN.txt	CRANE	BEAR	2	6	CRANE	n/a	0	11	[0, 0, 0]	n/a	0	1	0	n/a	n/a	0.0	0	0	0	PAL2	0	R1130M
1505.032	0.0	781461	REC_EVENT	0.0	n/a	CRANE	BEAR	2	6	CRANE	<>	0	11	[0, 0, 0]	n/a	0	1	0	n/a	n/a	0.0	0	0	0	PAL2	0	R1130M
1505.032	5.01	781461	REC_START	n/a	n/a	n/a	n/a	2	-999	n/a	n/a	0	11	[0, 0, 0]	n/a	0	1	0	n/a	n/a	0.0	0	0	0	PAL2	0	R1130M
1510.042	12.123	783966	REC_END	n/a	n/a	n/a	n/a	2	-999	n/a	n/a	-999	11	[0, 0, 0]	n/a	0	1	0	n/a	n/a	0.0	0	0	0	PAL2	0	R1130M
1522.165	10.437	790027	ENCODING_START	n/a	n/a	n/a	n/a	0	-999	n/a	n/a	-999	12	[0, 0, 0]	n/a	0	1	0	n/a	n/a	0.0	0	0	0	PAL2	0	R1130M
1532.602	0.25	795246	STUDY_ORIENT	n/a	n/a	PIN	BARN	1	3	BARN	n/a	0	12	[0, 0, 0]	n/a	0	1	0	n/a	n/a	0.0	0	0	0	PAL2	0	R1130M
1533.57	4.0	795730	STUDY_PAIR	n/a	wordpools/wordpool_EN.txt	PIN	BARN	1	3	BARN	n/a	0	12	[0, 0, 0]	n/a	0	1	0	n/a	n/a	0.0	0	0	0	PAL2	0	R1130M
1538.604	0.25	798246	STUDY_ORIENT	n/a	n/a	WEB	GRAPE	2	4	GRAPE	n/a	0	12	[0, 0, 0]	n/a	0	1	0	n/a	n/a	0.0	0	0	0	PAL2	0	R1130M
1539.407	4.6	798648	STIM_ON	n/a	n/a	WEB	GRAPE	2	4	GRAPE	n/a	0	12	[0, 0, 0]	n/a	1	1	4600	LFG15	LFG16	1000.0	50	230	300	PAL2	0	R1130M
1539.62	4.0	798754	STUDY_PAIR	n/a	wordpools/wordpool_EN.txt	WEB	GRAPE	2	4	GRAPE	n/a	0	12	[0, 0, 0]	n/a	1	1	4600	LFG15	LFG16	1000.0	50	230	300	PAL2	0	R1130M
1544.639	0.25	801264	STUDY_ORIENT	n/a	n/a	STORE	NAIL	3	1	STORE	n/a	0	12	[0, 0, 0]	n/a	0	1	0	n/a	n/a	0.0	0	0	0	PAL2	0	R1130M
1545.573	4.0	801731	STUDY_PAIR	n/a	wordpools/wordpool_EN.txt	STORE	NAIL	3	1	STORE	n/a	0	12	[0, 0, 0]	n/a	0	1	0	n/a	n/a	0.0	0	0	0	PAL2	0	R1130M
1550.606	0.25	804247	STUDY_ORIENT	n/a	n/a	STAIR	ROOF	4	6	STAIR	n/a	0	12	[0, 0, 0]	n/a	0	1	0	n/a	n/a	0.0	0	0	0	PAL2	0	R1130M
1551.245	4.6	804567	STIM_ON	n/a	n/a	STAIR	ROOF	4	6	STAIR	n/a	0	12	[0, 0, 0]	n/a	1	1	4600	LFG15	LFG16	1000.0	50	230	300	PAL2	0	R1130M
1551.457	4.0	804673	STUDY_PAIR	n/a	wordpools/wordpool_EN.txt	STAIR	ROOF	4	6	STAIR	n/a	0	12	[0, 0, 0]	n/a	1	1	4600	LFG15	LFG16	1000.0	50	230	300	PAL2	0	R1130M
1556.475	0.25	807181	STUDY_ORIENT	n/a	n/a	BOARD	BATH	5	5	BOARD	n/a	0	12	[0, 0, 0]	n/a	0	1	0	n/a	n/a	0.0	0	0	0	PAL2	0	R1130M
1557.508	4.0	807698	STUDY_PAIR	n/a	wordpools/wordpool_EN.txt	BOARD	BATH	5	5	BOARD	n/a	0	12	[0, 0, 0]	n/a	0	1	0	n/a	n/a	0.0	0	0	0	PAL2	0	R1130M
1562.526	0.25	810207	STUDY_ORIENT	n/a	n/a	PIPE	FOAM	6	2	FOAM	PIPE	1	12	[0, 0, 0]	n/a	0	1	0	n/a	n/a	0.0	0	0	0	PAL2	0	R1130M
1563.117	4.6	810502	STIM_ON	n/a	n/a	PIPE	FOAM	6	2	FOAM	PIPE	1	12	[0, 0, 0]	n/a	1	1	4600	LFG15	LFG16	1000.0	50	230	300	PAL2	0	R1130M
1563.326	4.0	810607	STUDY_PAIR	n/a	wordpools/wordpool_EN.txt	PIPE	FOAM	6	2	FOAM	PIPE	1	12	[0, 0, 0]	n/a	1	1	4600	LFG15	LFG16	1000.0	50	230	300	PAL2	0	R1130M
1567.327	1.0	812607	START	n/a	n/a	n/a	n/a	-999	-999	n/a	n/a	-999	12	[-999, -999, -999]	n/a	0	1	0	n/a	n/a	0.0	0	0	0	PAL2	0	R1130M
1568.327	0.017	813107	MATH_START	n/a	n/a	n/a	n/a	-999	-999	n/a	n/a	-999	12	[0, 0, 0]	n/a	0	1	0	n/a	n/a	0.0	0	0	0	PAL2	0	R1130M
1568.344	12.336	813116	PROB	12.301	n/a	n/a	n/a	-999	-999	n/a	n/a	-999	12	[1, 2, 6]	9	0	1	0	n/a	n/a	0.0	0	0	0	PAL2	0	R1130M
1580.68	7.677	819283	PROB	7.677	n/a	n/a	n/a	-999	-999	n/a	n/a	-999	12	[3, 1, 4]	8	0	1	0	n/a	n/a	0.0	0	0	0	PAL2	0	R1130M
1588.357	0.008	823122	STOP	n/a	n/a	n/a	n/a	-999	-999	n/a	n/a	-999	12	[-999, -999, -999]	n/a	0	1	0	n/a	n/a	0.0	0	0	0	PAL2	0	R1130M
1588.365	0.0	823126	MATH_END	n/a	n/a	n/a	n/a	-999	-999	n/a	n/a	-999	12	[0, 0, 0]	n/a	0	1	0	n/a	n/a	0.0	0	0	0	PAL2	0	R1130M
1588.365	0.016	823126	TEST_START	n/a	n/a	n/a	n/a	-999	-999	n/a	n/a	-999	12	[0, 0, 0]	n/a	0	1	0	n/a	n/a	0.0	0	0	0	PAL2	0	R1130M
1588.381	0.25	823134	TEST_ORIENT	n/a	n/a	STORE	NAIL	3	1	STORE	n/a	0	12	[0, 0, 0]	n/a	0	1	0	n/a	n/a	0.0	0	0	0	PAL2	0	R1130M
1589.231	4.0	823559	TEST_PROBE	n/a	wordpools/wordpool_EN.txt	STORE	NAIL	3	1	STORE	n/a	0	12	[0, 0, 0]	n/a	0	1	0	n/a	n/a	0.0	0	0	0	PAL2	0	R1130M
1589.232	0.0	823559	REC_EVENT	0.0	n/a	STORE	NAIL	3	1	STORE	<>	0	12	[0, 0, 0]	n/a	0	1	0	n/a	n/a	0.0	0	0	0	PAL2	0	R1130M
1589.232	5.01	823559	REC_START	n/a	n/a	n/a	n/a	3	-999	n/a	n/a	0	12	[0, 0, 0]	n/a	0	1	0	n/a	n/a	0.0	0	0	0	PAL2	0	R1130M
1594.242	0.007	826064	REC_END	n/a	n/a	n/a	n/a	3	-999	n/a	n/a	-999	12	[0, 0, 0]	n/a	0	1	0	n/a	n/a	0.0	0	0	0	PAL2	0	R1130M
1594.249	0.25	826067	TEST_ORIENT	n/a	n/a	PIPE	FOAM	6	2	FOAM	PIPE	1	12	[0, 0, 0]	n/a	0	1	0	n/a	n/a	0.0	0	0	0	PAL2	0	R1130M
1595.132	4.0	826509	TEST_PROBE	n/a	wordpools/wordpool_EN.txt	PIPE	FOAM	6	2	FOAM	PIPE	1	12	[0, 0, 0]	n/a	0	1	0	n/a	n/a	0.0	0	0	0	PAL2	0	R1130M
1595.133	1.908	826509	REC_START	n/a	n/a	n/a	n/a	6	-999	n/a	PIPE	1	12	[0, 0, 0]	n/a	0	1	0	n/a	n/a	0.0	0	0	0	PAL2	0	R1130M
1597.041	3.103	827463	REC_EVENT	1.908	n/a	PIPE	FOAM	6	2	FOAM	PIPE	1	12	[0, 0, 0]	n/a	0	1	0	n/a	n/a	0.0	0	0	0	PAL2	0	R1130M
1600.144	0.023	829015	REC_END	n/a	n/a	n/a	n/a	6	-999	n/a	n/a	-999	12	[0, 0, 0]	n/a	0	1	0	n/a	n/a	0.0	0	0	0	PAL2	0	R1130M
1600.167	0.25	829026	TEST_ORIENT	n/a	n/a	PIN	BARN	1	3	BARN	n/a	0	12	[0, 0, 0]	n/a	0	1	0	n/a	n/a	0.0	0	0	0	PAL2	0	R1130M
1601.167	0.0	829526	REC_START	n/a	n/a	n/a	n/a	1	-999	n/a	n/a	0	12	[0, 0, 0]	n/a	0	1	0	n/a	n/a	0.0	0	0	0	PAL2	0	R1130M
1601.167	4.0	829526	TEST_PROBE	n/a	wordpools/wordpool_EN.txt	PIN	BARN	1	3	BARN	n/a	0	12	[0, 0, 0]	n/a	0	1	0	n/a	n/a	0.0	0	0	0	PAL2	0	R1130M
1601.167	5.018	829526	REC_EVENT	0.0	n/a	PIN	BARN	1	3	BARN	<>	0	12	[0, 0, 0]	n/a	0	1	0	n/a	n/a	0.0	0	0	0	PAL2	0	R1130M
1606.185	0.016	832035	REC_END	n/a	n/a	n/a	n/a	1	-999	n/a	n/a	-999	12	[0, 0, 0]	n/a	0	1	0	n/a	n/a	0.0	0	0	0	PAL2	0	R1130M
1606.201	0.25	832043	TEST_ORIENT	n/a	n/a	WEB	GRAPE	2	4	GRAPE	n/a	0	12	[0, 0, 0]	n/a	0	1	0	n/a	n/a	0.0	0	0	0	PAL2	0	R1130M
1607.135	4.0	832510	TEST_PROBE	n/a	wordpools/wordpool_EN.txt	WEB	GRAPE	2	4	GRAPE	n/a	0	12	[0, 0, 0]	n/a	0	1	0	n/a	n/a	0.0	0	0	0	PAL2	0	R1130M
1607.135	0.0	832510	REC_START	n/a	n/a	n/a	n/a	2	-999	n/a	n/a	0	12	[0, 0, 0]	n/a	0	1	0	n/a	n/a	0.0	0	0	0	PAL2	0	R1130M
1607.135	5.017	832510	REC_EVENT	0.0	n/a	WEB	GRAPE	2	4	GRAPE	<>	0	12	[0, 0, 0]	n/a	0	1	0	n/a	n/a	0.0	0	0	0	PAL2	0	R1130M
1612.152	0.017	835018	REC_END	n/a	n/a	n/a	n/a	2	-999	n/a	n/a	-999	12	[0, 0, 0]	n/a	0	1	0	n/a	n/a	0.0	0	0	0	PAL2	0	R1130M
1612.169	0.25	835027	TEST_ORIENT	n/a	n/a	BOARD	BATH	5	5	BOARD	n/a	0	12	[0, 0, 0]	n/a	0	1	0	n/a	n/a	0.0	0	0	0	PAL2	0	R1130M
1613.036	4.0	835460	TEST_PROBE	n/a	wordpools/wordpool_EN.txt	BOARD	BATH	5	5	BOARD	n/a	0	12	[0, 0, 0]	n/a	0	1	0	n/a	n/a	0.0	0	0	0	PAL2	0	R1130M
1613.037	0.0	835461	REC_START	n/a	n/a	n/a	n/a	5	-999	n/a	n/a	0	12	[0, 0, 0]	n/a	0	1	0	n/a	n/a	0.0	0	0	0	PAL2	0	R1130M
1613.037	5.011	835461	REC_EVENT	0.0	n/a	BOARD	BATH	5	5	BOARD	<>	0	12	[0, 0, 0]	n/a	0	1	0	n/a	n/a	0.0	0	0	0	PAL2	0	R1130M
1618.048	0.023	837966	REC_END	n/a	n/a	n/a	n/a	5	-999	n/a	n/a	-999	12	[0, 0, 0]	n/a	0	1	0	n/a	n/a	0.0	0	0	0	PAL2	0	R1130M
1618.071	0.25	837978	TEST_ORIENT	n/a	n/a	STAIR	ROOF	4	6	STAIR	n/a	0	12	[0, 0, 0]	n/a	0	1	0	n/a	n/a	0.0	0	0	0	PAL2	0	R1130M
1619.087	4.0	838486	TEST_PROBE	n/a	wordpools/wordpool_EN.txt	STAIR	ROOF	4	6	STAIR	n/a	0	12	[0, 0, 0]	n/a	0	1	0	n/a	n/a	0.0	0	0	0	PAL2	0	R1130M
1619.088	0.0	838486	REC_START	n/a	n/a	n/a	n/a	4	-999	n/a	n/a	0	12	[0, 0, 0]	n/a	0	1	0	n/a	n/a	0.0	0	0	0	PAL2	0	R1130M
1619.088	5.0	838486	REC_EVENT	0.0	n/a	STAIR	ROOF	4	6	STAIR	<>	0	12	[0, 0, 0]	n/a	0	1	0	n/a	n/a	0.0	0	0	0	PAL2	0	R1130M
1624.088	69.973	840986	REC_END	n/a	n/a	n/a	n/a	4	-999	n/a	n/a	-999	12	[0, 0, 0]	n/a	0	1	0	n/a	n/a	0.0	0	0	0	PAL2	0	R1130M
1694.061	10.443	875971	ENCODING_START	n/a	n/a	n/a	n/a	0	-999	n/a	n/a	-999	13	[0, 0, 0]	n/a	0	0	0	n/a	n/a	0.0	0	0	0	PAL2	0	R1130M
1704.504	0.25	881192	STUDY_ORIENT	n/a	n/a	GRASS	SWORD	1	5	GRASS	n/a	0	13	[0, 0, 0]	n/a	0	0	0	n/a	n/a	0.0	0	0	0	PAL2	0	R1130M
1705.488	4.0	881684	STUDY_PAIR	n/a	wordpools/wordpool_EN.txt	GRASS	SWORD	1	5	GRASS	n/a	0	13	[0, 0, 0]	n/a	0	0	0	n/a	n/a	0.0	0	0	0	PAL2	0	R1130M
1710.522	0.25	884201	STUDY_ORIENT	n/a	n/a	SNAIL	CAPE	2	6	SNAIL	n/a	0	13	[0, 0, 0]	n/a	0	0	0	n/a	n/a	0.0	0	0	0	PAL2	0	R1130M
1711.305	4.0	884592	STUDY_PAIR	n/a	wordpools/wordpool_EN.txt	SNAIL	CAPE	2	6	SNAIL	n/a	0	13	[0, 0, 0]	n/a	0	0	0	n/a	n/a	0.0	0	0	0	PAL2	0	R1130M
1716.323	0.25	887101	STUDY_ORIENT	n/a	n/a	FLAG	SHIELD	3	3	FLAG	n/a	0	13	[0, 0, 0]	n/a	0	0	0	n/a	n/a	0.0	0	0	0	PAL2	0	R1130M
1717.274	4.0	887576	STUDY_PAIR	n/a	wordpools/wordpool_EN.txt	FLAG	SHIELD	3	3	FLAG	n/a	0	13	[0, 0, 0]	n/a	0	0	0	n/a	n/a	0.0	0	0	0	PAL2	0	R1130M
1722.308	0.25	890093	STUDY_ORIENT	n/a	n/a	FLOOR	OWL	4	4	OWL	n/a	0	13	[0, 0, 0]	n/a	0	0	0	n/a	n/a	0.0	0	0	0	PAL2	0	R1130M
1723.341	4.0	890610	STUDY_PAIR	n/a	wordpools/wordpool_EN.txt	FLOOR	OWL	4	4	OWL	n/a	0	13	[0, 0, 0]	n/a	0	0	0	n/a	n/a	0.0	0	0	0	PAL2	0	R1130M
1728.359	0.25	893119	STUDY_ORIENT	n/a	n/a	SUIT	BAT	5	1	BAT	CHIN	0	13	[0, 0, 0]	n/a	0	0	0	n/a	n/a	0.0	0	0	0	PAL2	0	R1130M
1729.309	4.0	893594	STUDY_PAIR	n/a	wordpools/wordpool_EN.txt	SUIT	BAT	5	1	BAT	CHIN	0	13	[0, 0, 0]	n/a	0	0	0	n/a	n/a	0.0	0	0	0	PAL2	0	R1130M
1734.327	0.25	896103	STUDY_ORIENT	n/a	n/a	CHIN	RAT	6	2	RAT	SUIT	0	13	[0, 0, 0]	n/a	0	0	0	n/a	n/a	0.0	0	0	0	PAL2	0	R1130M
1735.144	4.0	896511	STUDY_PAIR	n/a	wordpools/wordpool_EN.txt	CHIN	RAT	6	2	RAT	SUIT	0	13	[0, 0, 0]	n/a	0	0	0	n/a	n/a	0.0	0	0	0	PAL2	0	R1130M
1739.162	0.999	898520	START	n/a	n/a	n/a	n/a	-999	-999	n/a	n/a	-999	13	[-999, -999, -999]	n/a	0	0	0	n/a	n/a	0.0	0	0	0	PAL2	0	R1130M
1740.161	0.017	899019	MATH_START	n/a	n/a	n/a	n/a	-999	-999	n/a	n/a	-999	13	[0, 0, 0]	n/a	0	0	0	n/a	n/a	0.0	0	0	0	PAL2	0	R1130M
1740.178	9.418	899028	PROB	9.395	n/a	n/a	n/a	-999	-999	n/a	n/a	-999	13	[5, 1, 8]	14	0	0	0	n/a	n/a	0.0	0	0	0	PAL2	0	R1130M
1749.596	4.485	903737	PROB	4.465	n/a	n/a	n/a	-999	-999	n/a	n/a	-999	13	[4, 2, 6]	12	0	0	0	n/a	n/a	0.0	0	0	0	PAL2	0	R1130M
1754.081	11.772	905979	PROB	11.772	n/a	n/a	n/a	-999	-999	n/a	n/a	-999	13	[5, 7, 7]	19	0	0	0	n/a	n/a	0.0	0	0	0	PAL2	0	R1130M
1765.853	0.014	911865	STOP	n/a	n/a	n/a	n/a	-999	-999	n/a	n/a	-999	13	[-999, -999, -999]	n/a	0	0	0	n/a	n/a	0.0	0	0	0	PAL2	0	R1130M
1765.867	0.0	911872	MATH_END	n/a	n/a	n/a	n/a	-999	-999	n/a	n/a	-999	13	[0, 0, 0]	n/a	0	0	0	n/a	n/a	0.0	0	0	0	PAL2	0	R1130M
1765.867	0.016	911872	TEST_START	n/a	n/a	n/a	n/a	-999	-999	n/a	n/a	-999	13	[0, 0, 0]	n/a	0	0	0	n/a	n/a	0.0	0	0	0	PAL2	0	R1130M
1765.883	0.25	911880	TEST_ORIENT	n/a	n/a	SUIT	BAT	5	1	BAT	CHIN	0	13	[0, 0, 0]	n/a	0	0	0	n/a	n/a	0.0	0	0	0	PAL2	0	R1130M
1766.883	4.0	912380	TEST_PROBE	n/a	wordpools/wordpool_EN.txt	SUIT	BAT	5	1	BAT	CHIN	0	13	[0, 0, 0]	n/a	0	0	0	n/a	n/a	0.0	0	0	0	PAL2	0	R1130M
1766.884	2.525	912380	REC_START	n/a	n/a	n/a	n/a	5	-999	n/a	CHIN	0	13	[0, 0, 0]	n/a	0	0	0	n/a	n/a	0.0	0	0	0	PAL2	0	R1130M
1769.409	2.486	913643	REC_EVENT	2.525	n/a	SUIT	BAT	5	1	BAT	CHIN	0	13	[0, 0, 0]	n/a	0	0	0	n/a	n/a	0.0	0	0	0	PAL2	0	R1130M
1771.895	0.023	914885	REC_END	n/a	n/a	n/a	n/a	5	-999	n/a	n/a	-999	13	[0, 0, 0]	n/a	0	0	0	n/a	n/a	0.0	0	0	0	PAL2	0	R1130M
1771.918	0.25	914897	TEST_ORIENT	n/a	n/a	CHIN	RAT	6	2	RAT	SUIT	0	13	[0, 0, 0]	n/a	0	0	0	n/a	n/a	0.0	0	0	0	PAL2	0	R1130M
1772.768	4.0	915322	TEST_PROBE	n/a	wordpools/wordpool_EN.txt	CHIN	RAT	6	2	RAT	SUIT	0	13	[0, 0, 0]	n/a	0	0	0	n/a	n/a	0.0	0	0	0	PAL2	0	R1130M
1772.768	3.796	915322	REC_START	n/a	n/a	n/a	n/a	6	-999	n/a	SUIT	0	13	[0, 0, 0]	n/a	0	0	0	n/a	n/a	0.0	0	0	0	PAL2	0	R1130M
1776.564	1.221	917220	REC_EVENT	3.796	n/a	CHIN	RAT	6	2	RAT	SUIT	0	13	[0, 0, 0]	n/a	0	0	0	n/a	n/a	0.0	0	0	0	PAL2	0	R1130M
1777.785	0.017	917830	REC_END	n/a	n/a	n/a	n/a	6	-999	n/a	n/a	-999	13	[0, 0, 0]	n/a	0	0	0	n/a	n/a	0.0	0	0	0	PAL2	0	R1130M
1777.802	0.25	917839	TEST_ORIENT	n/a	n/a	FLAG	SHIELD	3	3	FLAG	n/a	0	13	[0, 0, 0]	n/a	0	0	0	n/a	n/a	0.0	0	0	0	PAL2	0	R1130M
1778.819	4.0	918347	TEST_PROBE	n/a	wordpools/wordpool_EN.txt	FLAG	SHIELD	3	3	FLAG	n/a	0	13	[0, 0, 0]	n/a	0	0	0	n/a	n/a	0.0	0	0	0	PAL2	0	R1130M
1778.82	0.0	918348	REC_START	n/a	n/a	n/a	n/a	3	-999	n/a	n/a	0	13	[0, 0, 0]	n/a	0	0	0	n/a	n/a	0.0	0	0	0	PAL2	0	R1130M
1778.82	5.01	918348	REC_EVENT	0.0	n/a	FLAG	SHIELD	3	3	FLAG	<>	0	13	[0, 0, 0]	n/a	0	0	0	n/a	n/a	0.0	0	0	0	PAL2	0	R1130M
1783.83	0.023	920853	REC_END	n/a	n/a	n/a	n/a	3	-999	n/a	n/a	-999	13	[0, 0, 0]	n/a	0	0	0	n/a	n/a	0.0	0	0	0	PAL2	0	R1130M
1783.853	0.25	920864	TEST_ORIENT	n/a	n/a	FLOOR	OWL	4	4	OWL	n/a	0	13	[0, 0, 0]	n/a	0	0	0	n/a	n/a	0.0	0	0	0	PAL2	0	R1130M
1784.87	4.0	921373	TEST_PROBE	n/a	wordpools/wordpool_EN.txt	FLOOR	OWL	4	4	OWL	n/a	0	13	[0, 0, 0]	n/a	0	0	0	n/a	n/a	0.0	0	0	0	PAL2	0	R1130M
1784.871	0.0	921373	REC_START	n/a	n/a	n/a	n/a	4	-999	n/a	n/a	0	13	[0, 0, 0]	n/a	0	0	0	n/a	n/a	0.0	0	0	0	PAL2	0	R1130M
1784.871	5.01	921373	REC_EVENT	0.0	n/a	FLOOR	OWL	4	4	OWL	<>	0	13	[0, 0, 0]	n/a	0	0	0	n/a	n/a	0.0	0	0	0	PAL2	0	R1130M
1789.881	0.024	923878	REC_END	n/a	n/a	n/a	n/a	4	-999	n/a	n/a	-999	13	[0, 0, 0]	n/a	0	0	0	n/a	n/a	0.0	0	0	0	PAL2	0	R1130M
1789.905	0.25	923890	TEST_ORIENT	n/a	n/a	GRASS	SWORD	1	5	GRASS	n/a	0	13	[0, 0, 0]	n/a	0	0	0	n/a	n/a	0.0	0	0	0	PAL2	0	R1130M
1790.905	4.0	924390	TEST_PROBE	n/a	wordpools/wordpool_EN.txt	GRASS	SWORD	1	5	GRASS	n/a	0	13	[0, 0, 0]	n/a	0	0	0	n/a	n/a	0.0	0	0	0	PAL2	0	R1130M
1790.905	0.0	924390	REC_START	n/a	n/a	n/a	n/a	1	-999	n/a	n/a	0	13	[0, 0, 0]	n/a	0	0	0	n/a	n/a	0.0	0	0	0	PAL2	0	R1130M
1790.905	5.017	924390	REC_EVENT	0.0	n/a	GRASS	SWORD	1	5	GRASS	<>	0	13	[0, 0, 0]	n/a	0	0	0	n/a	n/a	0.0	0	0	0	PAL2	0	R1130M
1795.922	0.017	926898	REC_END	n/a	n/a	n/a	n/a	1	-999	n/a	n/a	-999	13	[0, 0, 0]	n/a	0	0	0	n/a	n/a	0.0	0	0	0	PAL2	0	R1130M
1795.939	0.25	926907	TEST_ORIENT	n/a	n/a	SNAIL	CAPE	2	6	SNAIL	n/a	0	13	[0, 0, 0]	n/a	0	0	0	n/a	n/a	0.0	0	0	0	PAL2	0	R1130M
1796.939	4.0	927407	TEST_PROBE	n/a	wordpools/wordpool_EN.txt	SNAIL	CAPE	2	6	SNAIL	n/a	0	13	[0, 0, 0]	n/a	0	0	0	n/a	n/a	0.0	0	0	0	PAL2	0	R1130M
1796.94	0.0	927407	REC_START	n/a	n/a	n/a	n/a	2	-999	n/a	n/a	0	13	[0, 0, 0]	n/a	0	0	0	n/a	n/a	0.0	0	0	0	PAL2	0	R1130M
1796.94	5.01	927407	REC_EVENT	0.0	n/a	SNAIL	CAPE	2	6	SNAIL	<>	0	13	[0, 0, 0]	n/a	0	0	0	n/a	n/a	0.0	0	0	0	PAL2	0	R1130M
1801.95	16.719	929912	REC_END	n/a	n/a	n/a	n/a	2	-999	n/a	n/a	-999	13	[0, 0, 0]	n/a	0	0	0	n/a	n/a	0.0	0	0	0	PAL2	0	R1130M
1818.669	10.443	938271	ENCODING_START	n/a	n/a	n/a	n/a	0	-999	n/a	n/a	-999	14	[0, 0, 0]	n/a	0	1	0	n/a	n/a	0.0	0	0	0	PAL2	0	R1130M
1829.112	0.25	943492	STUDY_ORIENT	n/a	n/a	ROCK	VEST	1	5	VEST	n/a	0	14	[0, 0, 0]	n/a	0	1	0	n/a	n/a	0.0	0	0	0	PAL2	0	R1130M
1829.996	4.0	943934	STUDY_PAIR	n/a	wordpools/wordpool_EN.txt	ROCK	VEST	1	5	VEST	n/a	0	14	[0, 0, 0]	n/a	0	1	0	n/a	n/a	0.0	0	0	0	PAL2	0	R1130M
1835.03	0.25	946451	STUDY_ORIENT	n/a	n/a	CORD	THREAD	2	6	THREAD	n/a	0	14	[0, 0, 0]	n/a	0	1	0	n/a	n/a	0.0	0	0	0	PAL2	0	R1130M
1836.047	4.0	946960	STUDY_PAIR	n/a	wordpools/wordpool_EN.txt	CORD	THREAD	2	6	THREAD	n/a	0	14	[0, 0, 0]	n/a	0	1	0	n/a	n/a	0.0	0	0	0	PAL2	0	R1130M
1841.065	0.25	949469	STUDY_ORIENT	n/a	n/a	SPARK	SLEEVE	3	3	SLEEVE	n/a	0	14	[0, 0, 0]	n/a	0	1	0	n/a	n/a	0.0	0	0	0	PAL2	0	R1130M
1842.065	4.0	949969	STUDY_PAIR	n/a	wordpools/wordpool_EN.txt	SPARK	SLEEVE	3	3	SLEEVE	n/a	0	14	[0, 0, 0]	n/a	0	1	0	n/a	n/a	0.0	0	0	0	PAL2	0	R1130M
1847.083	0.25	952477	STUDY_ORIENT	n/a	n/a	YARD	SEED	4	2	YARD	n/a	0	14	[0, 0, 0]	n/a	0	1	0	n/a	n/a	0.0	0	0	0	PAL2	0	R1130M
1847.866	4.0	952869	STUDY_PAIR	n/a	wordpools/wordpool_EN.txt	YARD	SEED	4	2	YARD	n/a	0	14	[0, 0, 0]	n/a	0	1	0	n/a	n/a	0.0	0	0	0	PAL2	0	R1130M
1852.884	0.25	955378	STUDY_ORIENT	n/a	n/a	GLOVE	PEN	5	1	GLOVE	n/a	0	14	[0, 0, 0]	n/a	0	1	0	n/a	n/a	0.0	0	0	0	PAL2	0	R1130M
1853.667	4.0	955769	STUDY_PAIR	n/a	wordpools/wordpool_EN.txt	GLOVE	PEN	5	1	GLOVE	n/a	0	14	[0, 0, 0]	n/a	0	1	0	n/a	n/a	0.0	0	0	0	PAL2	0	R1130M
1858.685	0.25	958278	STUDY_ORIENT	n/a	n/a	WOOD	LIP	6	4	WOOD	LIP	1	14	[0, 0, 0]	n/a	0	1	0	n/a	n/a	0.0	0	0	0	PAL2	0	R1130M
1859.519	4.0	958695	STUDY_PAIR	n/a	wordpools/wordpool_EN.txt	WOOD	LIP	6	4	WOOD	LIP	1	14	[0, 0, 0]	n/a	0	1	0	n/a	n/a	0.0	0	0	0	PAL2	0	R1130M
1863.537	0.999	960704	START	n/a	n/a	n/a	n/a	-999	-999	n/a	n/a	-999	14	[-999, -999, -999]	n/a	0	1	0	n/a	n/a	0.0	0	0	0	PAL2	0	R1130M
1864.536	0.017	961203	MATH_START	n/a	n/a	n/a	n/a	-999	-999	n/a	n/a	-999	14	[0, 0, 0]	n/a	0	1	0	n/a	n/a	0.0	0	0	0	PAL2	0	R1130M
1864.553	19.644	961212	PROB	19.644	n/a	n/a	n/a	-999	-999	n/a	n/a	-999	14	[6, 3, 8]	17	0	1	0	n/a	n/a	0.0	0	0	0	PAL2	0	R1130M
1884.197	0.01	971033	STOP	n/a	n/a	n/a	n/a	-999	-999	n/a	n/a	-999	14	[-999, -999, -999]	n/a	0	1	0	n/a	n/a	0.0	0	0	0	PAL2	0	R1130M
1884.207	0.0	971038	MATH_END	n/a	n/a	n/a	n/a	-999	-999	n/a	n/a	-999	14	[0, 0, 0]	n/a	0	1	0	n/a	n/a	0.0	0	0	0	PAL2	0	R1130M
1884.207	0.017	971038	TEST_START	n/a	n/a	n/a	n/a	-999	-999	n/a	n/a	-999	14	[0, 0, 0]	n/a	0	1	0	n/a	n/a	0.0	0	0	0	PAL2	0	R1130M
1884.224	0.25	971047	TEST_ORIENT	n/a	n/a	GLOVE	PEN	5	1	GLOVE	n/a	0	14	[0, 0, 0]	n/a	0	1	0	n/a	n/a	0.0	0	0	0	PAL2	0	R1130M
1885.057	0.0	971463	REC_EVENT	0.0	n/a	GLOVE	PEN	5	1	GLOVE	<>	0	14	[0, 0, 0]	n/a	0	1	0	n/a	n/a	0.0	0	0	0	PAL2	0	R1130M
1885.057	0.0	971463	REC_START	n/a	n/a	n/a	n/a	5	-999	n/a	n/a	0	14	[0, 0, 0]	n/a	0	1	0	n/a	n/a	0.0	0	0	0	PAL2	0	R1130M
1885.057	4.0	971463	TEST_PROBE	n/a	wordpools/wordpool_EN.txt	GLOVE	PEN	5	1	GLOVE	n/a	0	14	[0, 0, 0]	n/a	0	1	0	n/a	n/a	0.0	0	0	0	PAL2	0	R1130M
1890.075	0.016	973972	REC_END	n/a	n/a	n/a	n/a	5	-999	n/a	n/a	-999	14	[0, 0, 0]	n/a	0	1	0	n/a	n/a	0.0	0	0	0	PAL2	0	R1130M
1890.091	0.25	973980	TEST_ORIENT	n/a	n/a	YARD	SEED	4	2	YARD	n/a	0	14	[0, 0, 0]	n/a	0	1	0	n/a	n/a	0.0	0	0	0	PAL2	0	R1130M
1890.883	4.6	974376	STIM_ON	n/a	n/a	YARD	SEED	4	2	YARD	n/a	0	14	[0, 0, 0]	n/a	1	1	4600	LFG15	LFG16	1000.0	50	230	300	PAL2	0	R1130M
1891.092	4.0	974481	TEST_PROBE	n/a	wordpools/wordpool_EN.txt	YARD	SEED	4	2	YARD	n/a	0	14	[0, 0, 0]	n/a	1	1	4600	LFG15	LFG16	1000.0	50	230	300	PAL2	0	R1130M
1891.092	0.0	974481	REC_START	n/a	n/a	n/a	n/a	4	-999	n/a	n/a	0	14	[0, 0, 0]	n/a	1	1	4600	LFG15	LFG16	1000.0	50	230	300	PAL2	0	R1130M
1891.092	5.017	974481	REC_EVENT	0.0	n/a	YARD	SEED	4	2	YARD	<>	0	14	[0, 0, 0]	n/a	1	1	4600	LFG15	LFG16	1000.0	50	230	300	PAL2	0	R1130M
1896.109	0.017	976989	REC_END	n/a	n/a	n/a	n/a	4	-999	n/a	n/a	-999	14	[0, 0, 0]	n/a	0	1	0	n/a	n/a	0.0	0	0	0	PAL2	0	R1130M
1896.126	0.25	976998	TEST_ORIENT	n/a	n/a	SPARK	SLEEVE	3	3	SLEEVE	n/a	0	14	[0, 0, 0]	n/a	0	1	0	n/a	n/a	0.0	0	0	0	PAL2	0	R1130M
1897.026	4.0	977448	TEST_PROBE	n/a	wordpools/wordpool_EN.txt	SPARK	SLEEVE	3	3	SLEEVE	n/a	0	14	[0, 0, 0]	n/a	0	1	0	n/a	n/a	0.0	0	0	0	PAL2	0	R1130M
1897.027	0.0	977448	REC_EVENT	0.0	n/a	SPARK	SLEEVE	3	3	SLEEVE	<>	0	14	[0, 0, 0]	n/a	0	1	0	n/a	n/a	0.0	0	0	0	PAL2	0	R1130M
1897.027	5.0	977448	REC_START	n/a	n/a	n/a	n/a	3	-999	n/a	n/a	0	14	[0, 0, 0]	n/a	0	1	0	n/a	n/a	0.0	0	0	0	PAL2	0	R1130M
1902.027	0.017	979948	REC_END	n/a	n/a	n/a	n/a	3	-999	n/a	n/a	-999	14	[0, 0, 0]	n/a	0	1	0	n/a	n/a	0.0	0	0	0	PAL2	0	R1130M
1902.044	0.25	979956	TEST_ORIENT	n/a	n/a	WOOD	LIP	6	4	WOOD	LIP	1	14	[0, 0, 0]	n/a	0	1	0	n/a	n/a	0.0	0	0	0	PAL2	0	R1130M
1902.66	4.6	980264	STIM_ON	n/a	n/a	WOOD	LIP	6	4	WOOD	LIP	1	14	[0, 0, 0]	n/a	1	1	4600	LFG15	LFG16	1000.0	50	230	300	PAL2	0	R1130M
1902.877	4.0	980373	TEST_PROBE	n/a	wordpools/wordpool_EN.txt	WOOD	LIP	6	4	WOOD	LIP	1	14	[0, 0, 0]	n/a	1	1	4600	LFG15	LFG16	1000.0	50	230	300	PAL2	0	R1130M
1902.878	0.899	980373	REC_START	n/a	n/a	n/a	n/a	6	-999	n/a	LIP	1	14	[0, 0, 0]	n/a	1	1	4600	LFG15	LFG16	1000.0	50	230	300	PAL2	0	R1130M
1903.777	4.111	980823	REC_EVENT	0.899	n/a	WOOD	LIP	6	4	WOOD	LIP	1	14	[0, 0, 0]	n/a	1	1	4600	LFG15	LFG16	1000.0	50	230	300	PAL2	0	R1130M
1907.888	0.024	982878	REC_END	n/a	n/a	n/a	n/a	6	-999	n/a	n/a	-999	14	[0, 0, 0]	n/a	0	1	0	n/a	n/a	0.0	0	0	0	PAL2	0	R1130M
1907.912	0.25	982890	TEST_ORIENT	n/a	n/a	ROCK	VEST	1	5	VEST	n/a	0	14	[0, 0, 0]	n/a	0	1	0	n/a	n/a	0.0	0	0	0	PAL2	0	R1130M
1908.912	0.0	983390	REC_START	n/a	n/a	n/a	n/a	1	-999	n/a	n/a	0	14	[0, 0, 0]	n/a	0	1	0	n/a	n/a	0.0	0	0	0	PAL2	0	R1130M
1908.912	0.0	983390	REC_EVENT	0.0	n/a	ROCK	VEST	1	5	VEST	<>	0	14	[0, 0, 0]	n/a	0	1	0	n/a	n/a	0.0	0	0	0	PAL2	0	R1130M
1908.912	4.0	983390	TEST_PROBE	n/a	wordpools/wordpool_EN.txt	ROCK	VEST	1	5	VEST	n/a	0	14	[0, 0, 0]	n/a	0	1	0	n/a	n/a	0.0	0	0	0	PAL2	0	R1130M
1913.929	0.017	985899	REC_END	n/a	n/a	n/a	n/a	1	-999	n/a	n/a	-999	14	[0, 0, 0]	n/a	0	1	0	n/a	n/a	0.0	0	0	0	PAL2	0	R1130M
1913.946	0.25	985907	TEST_ORIENT	n/a	n/a	CORD	THREAD	2	6	THREAD	n/a	0	14	[0, 0, 0]	n/a	0	1	0	n/a	n/a	0.0	0	0	0	PAL2	0	R1130M
1914.677	4.6	986273	STIM_ON	n/a	n/a	CORD	THREAD	2	6	THREAD	n/a	0	14	[0, 0, 0]	n/a	1	1	4600	LFG15	LFG16	1000.0	50	230	300	PAL2	0	R1130M
1914.88	4.0	986374	TEST_PROBE	n/a	wordpools/wordpool_EN.txt	CORD	THREAD	2	6	THREAD	n/a	0	14	[0, 0, 0]	n/a	1	1	4600	LFG15	LFG16	1000.0	50	230	300	PAL2	0	R1130M
1914.88	0.0	986374	REC_START	n/a	n/a	n/a	n/a	2	-999	n/a	n/a	0	14	[0, 0, 0]	n/a	1	1	4600	LFG15	LFG16	1000.0	50	230	300	PAL2	0	R1130M
1914.88	5.017	986374	REC_EVENT	0.0	n/a	CORD	THREAD	2	6	THREAD	<>	0	14	[0, 0, 0]	n/a	1	1	4600	LFG15	LFG16	1000.0	50	230	300	PAL2	0	R1130M
1919.897	7.332	988882	REC_END	n/a	n/a	n/a	n/a	2	-999	n/a	n/a	-999	14	[0, 0, 0]	n/a	0	1	0	n/a	n/a	0.0	0	0	0	PAL2	0	R1130M
1927.229	10.439	992548	ENCODING_START	n/a	n/a	n/a	n/a	0	-999	n/a	n/a	-999	15	[0, 0, 0]	n/a	0	1	0	n/a	n/a	0.0	0	0	0	PAL2	0	R1130M
1937.668	0.25	997767	STUDY_ORIENT	n/a	n/a	TENT	FOX	1	1	FOX	n/a	0	15	[0, 0, 0]	n/a	0	1	0	n/a	n/a	0.0	0	0	0	PAL2	0	R1130M
1938.518	4.0	998192	STUDY_PAIR	n/a	wordpools/wordpool_EN.txt	TENT	FOX	1	1	FOX	n/a	0	15	[0, 0, 0]	n/a	0	1	0	n/a	n/a	0.0	0	0	0	PAL2	0	R1130M
1943.552	0.25	1000709	STUDY_ORIENT	n/a	n/a	STEAM	WAVE	2	2	WAVE	STEAM	1	15	[0, 0, 0]	n/a	0	1	0	n/a	n/a	0.0	0	0	0	PAL2	0	R1130M
1944.261	4.6	1001064	STIM_ON	n/a	n/a	STEAM	WAVE	2	2	WAVE	STEAM	1	15	[0, 0, 0]	n/a	1	1	4600	LFG15	LFG16	1000.0	50	230	300	PAL2	0	R1130M
1944.469	4.0	1001168	STUDY_PAIR	n/a	wordpools/wordpool_EN.txt	STEAM	WAVE	2	2	WAVE	STEAM	1	15	[0, 0, 0]	n/a	1	1	4600	LFG15	LFG16	1000.0	50	230	300	PAL2	0	R1130M
1949.503	0.25	1003685	STUDY_ORIENT	n/a	n/a	EEL	BADGE	3	3	EEL	n/a	0	15	[0, 0, 0]	n/a	0	1	0	n/a	n/a	0.0	0	0	0	PAL2	0	R1130M
1950.37	4.0	1004118	STUDY_PAIR	n/a	wordpools/wordpool_EN.txt	EEL	BADGE	3	3	EEL	n/a	0	15	[0, 0, 0]	n/a	0	1	0	n/a	n/a	0.0	0	0	0	PAL2	0	R1130M
1955.404	0.25	1006635	STUDY_ORIENT	n/a	n/a	PEARL	WOLF	4	6	PEARL	n/a	0	15	[0, 0, 0]	n/a	0	1	0	n/a	n/a	0.0	0	0	0	PAL2	0	R1130M
1956.104	4.6	1006985	STIM_ON	n/a	n/a	PEARL	WOLF	4	6	PEARL	n/a	0	15	[0, 0, 0]	n/a	1	1	4600	LFG15	LFG16	1000.0	50	230	300	PAL2	0	R1130M
1956.321	4.0	1007093	STUDY_PAIR	n/a	wordpools/wordpool_EN.txt	PEARL	WOLF	4	6	PEARL	n/a	0	15	[0, 0, 0]	n/a	1	1	4600	LFG15	LFG16	1000.0	50	230	300	PAL2	0	R1130M
1961.339	0.25	1009602	STUDY_ORIENT	n/a	n/a	WHALE	SOAP	5	5	WHALE	SOAP	1	15	[0, 0, 0]	n/a	0	1	0	n/a	n/a	0.0	0	0	0	PAL2	0	R1130M
1962.272	4.0	1010069	STUDY_PAIR	n/a	wordpools/wordpool_EN.txt	WHALE	SOAP	5	5	WHALE	SOAP	1	15	[0, 0, 0]	n/a	0	1	0	n/a	n/a	0.0	0	0	0	PAL2	0	R1130M
1967.29	0.25	1012578	STUDY_ORIENT	n/a	n/a	SHRIMP	BRUSH	6	4	SHRIMP	n/a	0	15	[0, 0, 0]	n/a	0	1	0	n/a	n/a	0.0	0	0	0	PAL2	0	R1130M
1968.038	4.6	1012952	STIM_ON	n/a	n/a	SHRIMP	BRUSH	6	4	SHRIMP	n/a	0	15	[0, 0, 0]	n/a	1	1	4600	LFG15	LFG16	1000.0	50	230	300	PAL2	0	R1130M
1968.24	4.0	1013053	STUDY_PAIR	n/a	wordpools/wordpool_EN.txt	SHRIMP	BRUSH	6	4	SHRIMP	n/a	0	15	[0, 0, 0]	n/a	1	1	4600	LFG15	LFG16	1000.0	50	230	300	PAL2	0	R1130M
1972.242	0.999	1015053	START	n/a	n/a	n/a	n/a	-999	-999	n/a	n/a	-999	15	[-999, -999, -999]	n/a	0	1	0	n/a	n/a	0.0	0	0	0	PAL2	0	R1130M
1973.241	0.017	1015553	MATH_START	n/a	n/a	n/a	n/a	-999	-999	n/a	n/a	-999	15	[0, 0, 0]	n/a	0	1	0	n/a	n/a	0.0	0	0	0	PAL2	0	R1130M
1973.258	9.969	1015561	PROB	9.947	n/a	n/a	n/a	-999	-999	n/a	n/a	-999	15	[2, 6, 7]	15	0	1	0	n/a	n/a	0.0	0	0	0	PAL2	0	R1130M
1983.227	4.15	1020546	PROB	4.122	n/a	n/a	n/a	-999	-999	n/a	n/a	-999	15	[4, 4, 4]	12	0	1	0	n/a	n/a	0.0	0	0	0	PAL2	0	R1130M
1987.377	5.508	1022621	PROB	5.508	n/a	n/a	n/a	-999	-999	n/a	n/a	-999	15	[2, 6, 5]	13	0	1	0	n/a	n/a	0.0	0	0	0	PAL2	0	R1130M
1992.885	0.01	1025374	STOP	n/a	n/a	n/a	n/a	-999	-999	n/a	n/a	-999	15	[-999, -999, -999]	n/a	0	1	0	n/a	n/a	0.0	0	0	0	PAL2	0	R1130M
1992.895	0.0	1025379	MATH_END	n/a	n/a	n/a	n/a	-999	-999	n/a	n/a	-999	15	[0, 0, 0]	n/a	0	1	0	n/a	n/a	0.0	0	0	0	PAL2	0	R1130M
1992.895	0.017	1025379	TEST_START	n/a	n/a	n/a	n/a	-999	-999	n/a	n/a	-999	15	[0, 0, 0]	n/a	0	1	0	n/a	n/a	0.0	0	0	0	PAL2	0	R1130M
1992.912	0.25	1025388	TEST_ORIENT	n/a	n/a	TENT	FOX	1	1	FOX	n/a	0	15	[0, 0, 0]	n/a	0	1	0	n/a	n/a	0.0	0	0	0	PAL2	0	R1130M
1993.895	4.0	1025879	TEST_PROBE	n/a	wordpools/wordpool_EN.txt	TENT	FOX	1	1	FOX	n/a	0	15	[0, 0, 0]	n/a	0	1	0	n/a	n/a	0.0	0	0	0	PAL2	0	R1130M
1993.896	0.0	1025880	REC_START	n/a	n/a	n/a	n/a	1	-999	n/a	n/a	0	15	[0, 0, 0]	n/a	0	1	0	n/a	n/a	0.0	0	0	0	PAL2	0	R1130M
1993.896	5.01	1025880	REC_EVENT	0.0	n/a	TENT	FOX	1	1	FOX	<>	0	15	[0, 0, 0]	n/a	0	1	0	n/a	n/a	0.0	0	0	0	PAL2	0	R1130M
1998.906	0.024	1028385	REC_END	n/a	n/a	n/a	n/a	1	-999	n/a	n/a	-999	15	[0, 0, 0]	n/a	0	1	0	n/a	n/a	0.0	0	0	0	PAL2	0	R1130M
1998.93	0.25	1028397	TEST_ORIENT	n/a	n/a	STEAM	WAVE	2	2	WAVE	STEAM	1	15	[0, 0, 0]	n/a	0	1	0	n/a	n/a	0.0	0	0	0	PAL2	0	R1130M
1999.763	4.0	1028813	TEST_PROBE	n/a	wordpools/wordpool_EN.txt	STEAM	WAVE	2	2	WAVE	STEAM	1	15	[0, 0, 0]	n/a	0	1	0	n/a	n/a	0.0	0	0	0	PAL2	0	R1130M
1999.764	1.622	1028814	REC_START	n/a	n/a	n/a	n/a	2	-999	n/a	STEAM	1	15	[0, 0, 0]	n/a	0	1	0	n/a	n/a	0.0	0	0	0	PAL2	0	R1130M
2001.386	3.388	1029625	REC_EVENT	1.622	n/a	STEAM	WAVE	2	2	WAVE	STEAM	1	15	[0, 0, 0]	n/a	0	1	0	n/a	n/a	0.0	0	0	0	PAL2	0	R1130M
2004.774	0.024	1031319	REC_END	n/a	n/a	n/a	n/a	2	-999	n/a	n/a	-999	15	[0, 0, 0]	n/a	0	1	0	n/a	n/a	0.0	0	0	0	PAL2	0	R1130M
2004.798	0.25	1031331	TEST_ORIENT	n/a	n/a	EEL	BADGE	3	3	EEL	n/a	0	15	[0, 0, 0]	n/a	0	1	0	n/a	n/a	0.0	0	0	0	PAL2	0	R1130M
2005.698	4.0	1031781	TEST_PROBE	n/a	wordpools/wordpool_EN.txt	EEL	BADGE	3	3	EEL	n/a	0	15	[0, 0, 0]	n/a	0	1	0	n/a	n/a	0.0	0	0	0	PAL2	0	R1130M
2005.698	0.0	1031781	REC_START	n/a	n/a	n/a	n/a	3	-999	n/a	n/a	0	15	[0, 0, 0]	n/a	0	1	0	n/a	n/a	0.0	0	0	0	PAL2	0	R1130M
2005.698	5.017	1031781	REC_EVENT	0.0	n/a	EEL	BADGE	3	3	EEL	<>	0	15	[0, 0, 0]	n/a	0	1	0	n/a	n/a	0.0	0	0	0	PAL2	0	R1130M
2010.715	0.017	1034289	REC_END	n/a	n/a	n/a	n/a	3	-999	n/a	n/a	-999	15	[0, 0, 0]	n/a	0	1	0	n/a	n/a	0.0	0	0	0	PAL2	0	R1130M
2010.732	0.25	1034297	TEST_ORIENT	n/a	n/a	SHRIMP	BRUSH	6	4	SHRIMP	n/a	0	15	[0, 0, 0]	n/a	0	1	0	n/a	n/a	0.0	0	0	0	PAL2	0	R1130M
